#Transmitter Set: Tx: 1 TX2 - Point 1
#Receiver Set: Rx: 9 Walk2
#Rx    	          	          	          	          	Specular	        	Diffuse 	        	DiffusePSum	Total   	        	TotalPSum
#      	X(m)      	Y(m)      	Z(m)      	Distance(m)	Pow(dBm)	Phase(deg)	Pow(dBm)	Phase(deg)	Pow(dBm)	Pow(dBm)	Phase(deg)	Pow(dBm)
1      	-34.594   	30.953    	1.600     	0.000     	-78.390 	24.462  	-102.017	-124.854	-105.127	-78.891 	22.422  	-78.381 
2      	-31.196   	26.630    	1.600     	5.500     	-78.253 	-82.252 	-105.166	-71.935 	-103.319	-77.875 	-81.809 	-78.239 
3      	-26.561   	24.222    	1.600     	11.000    	-78.439 	32.804  	-97.767 	101.466 	-94.124 	-78.064 	38.334  	-78.323 
4      	-21.656   	22.208    	1.600     	16.500    	-76.110 	1.774   	-95.368 	-157.427	-95.812 	-77.035 	-0.692  	-76.064 
5      	-18.081   	18.033    	1.600     	22.000    	-75.156 	-116.245	-102.974	151.933 	-97.073 	-75.160 	-118.575	-75.129 
6      	-14.733   	13.670    	1.600     	27.500    	-75.155 	84.875  	-95.065 	13.440  	-97.137 	-74.843 	79.572  	-75.128 
7      	-11.311   	9.365     	1.600     	33.000    	-72.733 	132.312 	-111.312	5.803   	-96.442 	-72.794 	131.766 	-72.714 
8      	-7.519    	5.385     	1.600     	38.500    	-69.823 	72.299  	-103.822	-17.305 	-95.508 	-69.821 	71.156  	-69.812 
9      	-2.927    	2.974     	1.600     	44.000    	-70.127 	164.820 	-97.975 	54.334  	-93.711 	-70.244 	162.615 	-70.108 
10     	2.157     	4.995     	1.600     	49.500    	-83.051 	59.715  	-91.781 	-125.174	-87.921 	-86.981 	62.525  	-81.826 
11     	6.842     	7.874     	1.600     	55.000    	-70.995 	85.791  	-85.683 	-141.462	-85.467 	-72.053 	94.586  	-70.842 
12     	11.350    	11.023    	1.600     	60.500    	-78.772 	-69.931 	-110.753	-32.180 	-97.105 	-78.600 	-69.066 	-78.709 
13     	15.698    	14.390    	1.600     	66.000    	-86.621 	-134.039	-100.913	-110.160	-93.482 	-85.191 	-130.241	-85.807 
14     	19.459    	18.355    	1.600     	71.500    	-73.557 	-134.390	-95.102 	-140.810	-91.974 	-72.863 	-134.885	-73.495 
15     	20.759    	23.666    	1.600     	77.000    	-72.614 	-95.391 	-96.996 	-175.864	-92.690 	-72.513 	-98.766 	-72.572 
16     	24.115    	27.990    	1.600     	82.500    	-75.455 	88.657  	-95.621 	-97.436 	-92.528 	-76.345 	89.318  	-75.370 
17     	28.227    	31.634    	1.600     	88.000    	-73.852 	-144.273	-91.665 	-154.866	-92.707 	-72.816 	-145.476	-73.796 
18     	33.334    	33.351    	1.600     	93.500    	-74.979 	76.994  	-93.266 	111.293 	-91.962 	-74.130 	80.562  	-74.893 
