# <Transmitter Set: Tx: 1 TX2 - Point 1> 
# <Receiver Set: Rx: 9 Walk2 > 
# <number of receiver points>
# <receiver point number> <number of paths for this point>
#	rx pt summary:
#	<received power (dBm)>
#	<mean time of arrival (sec)>
#	<delay spread (sec)>
#		path summary:
#		<path number>
#		<total interactions for path> (not including Tx and Rx)
#		<received power(dBm)>
#		<phase(deg)>
#		<time of arrival(sec)>
#		<arrival theta(deg)>
#		<arrival phi(deg)>
#		<departure theta(deg)>
#		<departure phi(deg)>
#			interactions summary:
#			<interaction description> (Tx:transmitter, Rx:receiver, T:transmission, R:reflection, D:diffraction)
#			<cartesian locations of interactions> (including Tx and Rx)
18
1 25
-78.8909 2.3646e-07 2.84627e-08
1 0 -78.0628 18.9457 2.34035e-07 86.9761 -45.2128 93.0239 134.787
Tx-Rx 
14.7485 -18.758 5.3
-34.5942 30.9526 1.6
2 5 -99.7642 171.132 4.34894e-07 88.3733 -36.0511 91.6267 -79.5215
Tx-R-F-X-R-R-Rx 
14.7485 -18.758 5.3
14.9953 -20.0922 5.26147
19.4515 -22.6417 5.11566
20.7465 -23.3826 5.07329
39.1753 -33.9259 4.47032
35.6278 -20.1624 4.06667
-34.5942 30.9526 1.6
3 1 -108.987 114.719 2.34535e-07 86.9826 -41.8338 93.0174 130.639
Tx-D-Rx 
14.7485 -18.758 5.3
-5.77742 5.15686 3.63872
-34.5942 30.9526 1.6
4 1 -109.032 154.985 2.34635e-07 86.9839 -32.7699 93.0161 133.438
Tx-D-Rx 
14.7485 -18.758 5.3
-28.7763 27.2076 1.96457
-34.5942 30.9526 1.6
5 3 -110.443 77.0545 8.81322e-07 89.1974 136.227 90.8026 135.624
Tx-F-X-D-Rx 
14.7485 -18.758 5.3
-6.54055 2.0726 4.88272
-8.77154 4.25553 4.83899
-104.663 98.0824 2.95946
-34.5942 30.9526 1.6
6 1 -110.882 92.2292 2.34947e-07 86.9879 -50.9109 93.0121 139.274
Tx-D-Rx 
14.7485 -18.758 5.3
-15.0566 6.90237 3.23048
-34.5942 30.9526 1.6
7 1 -111.057 -61.2991 2.35726e-07 86.9978 -49.7062 93.0022 145.299
Tx-D-Rx 
14.7485 -18.758 5.3
-2.67641 -6.69178 4.18842
-34.5942 30.9526 1.6
8 1 -112.019 -81.2033 2.98081e-07 90.601 -44.6455 116.415 -40.2841
Tx-DS-Rx 
14.7485 -18.758 5.3
21.7055 -24.6546 0.76993
-34.5942 30.9526 1.6
9 3 -112.138 -83.9054 3.00017e-07 90.286 -43.5251 113.072 -31.1384
Tx-F-X-DS-Rx 
14.7485 -18.758 5.3
19.0584 -21.3618 3.15512
19.3701 -21.5501 3
22.9798 -23.731 1.20359
-34.5942 30.9526 1.6
10 3 -114.473 4.58978 2.39598e-07 87.0464 -33.1419 92.9536 122.077
Tx-D-F-X-Rx 
14.7485 -18.758 5.3
-3.8089 10.8519 3.497
-11.3622 15.7837 3.03157
-11.8744 16.1181 3
-34.5942 30.9526 1.6
11 2 -114.881 30.7501 2.9928e-07 90.6295 -44.5931 115.703 -76.1337
Tx-R-DS-Rx 
14.7485 -18.758 5.3
15.1219 -20.2708 4.54998
21.7649 -24.6115 0.730374
-34.5942 30.9526 1.6
12 2 -115.058 -122.684 3.00793e-07 90.2488 -43.7568 112.075 -82.4481
Tx-R-DS-Rx 
14.7485 -18.758 5.3
14.9093 -19.9711 4.80373
22.7156 -23.9225 1.25544
-34.5942 30.9526 1.6
13 7 -115.799 -157.534 4.17659e-07 88.6993 -43.8274 93.0931 -40.2984
Tx-F-X-DS-F-X-F-X-Rx 
14.7485 -18.758 5.3
19.5721 -22.8485 4.95824
20.0474 -23.2515 4.92457
35.7323 -36.5525 3.8133
21.8561 -23.233 3.37659
19.1988 -20.6824 3.29296
18.7859 -20.286 3.27996
17.0311 -18.6016 3.22474
-34.5942 30.9526 1.6
14 6 -115.916 91.1769 4.34905e-07 88.3733 -35.251 91.6267 -79.3206
Tx-R-F-X-R-R-D-Rx 
14.7485 -18.758 5.3
15.0019 -20.1015 5.26117
19.4746 -22.6813 5.11454
20.6635 -23.367 5.07556
39.087 -33.9933 4.47156
35.3719 -19.786 4.05452
-13.2385 15.8594 2.34266
-34.5942 30.9526 1.6
15 5 -116.017 162.459 4.34901e-07 88.3733 -36.2772 91.6267 -79.9891
Tx-R-F-X-R-D-Rx 
14.7485 -18.758 5.3
14.9803 -20.0711 5.26213
19.3988 -22.5514 5.11823
20.9463 -23.42 5.06783
39.3817 -33.7684 4.46744
36.2043 -21.0107 4.09406
-34.5942 30.9526 1.6
16 4 -116.548 10.5552 4.33314e-07 88.3673 -36.2772 91.6327 -30.7147
Tx-F-X-R-D-Rx 
14.7485 -18.758 5.3
19.0549 -21.3164 5.15722
22.0968 -23.1236 5.05637
39.6586 -33.5572 4.47413
36.2043 -21.0107 4.1032
-34.5942 30.9526 1.6
17 2 -117.715 -113.01 4.26238e-07 88.3402 -33.2171 91.6598 -42.7772
Tx-R-D-Rx 
14.7485 -18.758 5.3
34.772 -37.2851 4.50951
16.8036 -2.70302 3.38024
-34.5942 30.9526 1.6
18 5 -117.807 -45.2843 2.39549e-07 87.0458 -34.4554 92.9542 120.651
Tx-D-F-X-F-X-Rx 
14.7485 -18.758 5.3
-1.0853 7.96098 3.69719
-7.71325 12.5086 3.28238
-7.90826 12.6425 3.27017
-11.3622 15.0123 3.054
-12.225 15.6043 3
-34.5942 30.9526 1.6
19 3 -118.131 12.1261 8.02701e-07 89.1187 12.6831 90.8813 44.5268
Tx-D-R-R-Rx 
14.7485 -18.758 5.3
30.0038 -3.75261 4.97085
-75.7262 -56.7118 3.15187
-32.1551 31.5015 1.63846
-34.5942 30.9526 1.6
20 1 -118.839 173.477 2.59257e-07 87.2705 -33.1974 92.7295 82.8495
Tx-D-Rx 
14.7485 -18.758 5.3
16.7686 -2.65492 4.52628
-34.5942 30.9526 1.6
21 2 -119.116 54.536 4.26238e-07 88.3402 -33.2094 91.6598 -42.7837
Tx-R-D-Rx 
14.7485 -18.758 5.3
34.7695 -37.287 4.50953
16.783 -2.67967 3.37936
-34.5942 30.9526 1.6
22 7 -119.182 -98.4973 1.12824e-06 90.9286 -12.2121 90.9286 70.1987
Tx-R-R-D-F-R-X-R-Rx 
14.7485 -18.758 5.3
38.8621 48.2155 4.1462
0.54604 47.579 3.52505
-33.5961 -71.2086 1.52167
-32.4406 -23.6155 0.75
-32.3807 -21.1484 0.71
-32.3723 -20.8045 0.715576
-31.1339 30.2037 1.54261
-34.5942 30.9526 1.6
23 3 -119.196 144.548 3.56309e-07 88.9089 -35.8772 95.7488 -2.14154
Tx-F-X-DS-Rx 
14.7485 -18.758 5.3
17.0753 -18.845 5.06558
20.7925 -18.984 4.6911
35.1929 -19.5225 3.24036
-34.5942 30.9526 1.6
24 3 -119.362 141.099 4.29223e-07 88.0824 -39.9382 90.7592 -27.422
Tx-F-X-DS-Rx 
14.7485 -18.758 5.3
19.029 -20.9788 5.2361
22.494 -22.7767 5.18437
41.1214 -32.4413 4.9063
-34.5942 30.9526 1.6
25 3 -119.508 147.035 8.02703e-07 89.1187 12.6729 90.8813 44.4218
Tx-D-R-R-Rx 
14.7485 -18.758 5.3
30.0271 -3.78468 4.97094
-75.7127 -56.7252 3.15196
-32.1548 31.5011 1.63846
-34.5942 30.9526 1.6
2 25
-77.8753 2.1973e-07 3.29586e-08
1 0 -77.2963 -85.2927 2.15848e-07 86.7211 -44.651 93.2789 135.349
Tx-Rx 
14.7485 -18.758 5.3
-31.1957 26.6298 1.6
2 1 -99.21 -101.232 2.61586e-07 87.2948 -6.11814 92.7052 104.616
Tx-D-Rx 
14.7485 -18.758 5.3
3.89314 22.8687 3.26741
-31.1957 26.6298 1.6
3 3 -101.596 98.1243 4.7749e-07 88.5184 9.158 91.4816 61.9925
Tx-F-X-R-Rx 
14.7485 -18.758 5.3
39.722 28.1955 3.92448
42.4885 33.397 3.77211
45.4623 38.9881 3.60831
-31.1957 26.6298 1.6
4 3 -104.78 121.301 4.42456e-07 88.0977 7.25873 91.2353 64.7286
Tx-F-X-D-Rx 
14.7485 -18.758 5.3
37.9824 30.4572 4.12645
39.1097 32.8452 4.0695
40.4858 35.76 4
-31.1957 26.6298 1.6
5 1 -105.773 62.0164 2.18042e-07 86.7541 -40.7893 93.2459 118.232
Tx-D-Rx 
14.7485 -18.758 5.3
9.00137 -8.05422 4.611
-31.1957 26.6298 1.6
6 2 -106.501 5.00625 4.45779e-07 88.0934 7.49884 91.212 -173.784
Tx-R-D-Rx 
14.7485 -18.758 5.3
14.0989 -18.8287 5.28618
40.2832 36.0387 4
-31.1957 26.6298 1.6
7 1 -107.972 81.697 2.61586e-07 87.2948 -6.12292 92.7052 104.612
Tx-D-Rx 
14.7485 -18.758 5.3
3.89713 22.8653 3.26761
-31.1957 26.6298 1.6
8 1 -109.332 -41.6453 2.16538e-07 86.7315 -40.1906 93.2685 130.639
Tx-D-Rx 
14.7485 -18.758 5.3
-5.77742 5.15686 3.50022
-31.1957 26.6298 1.6
9 1 -109.517 -170.676 2.1663e-07 86.7329 -50.7134 93.2671 139.274
Tx-D-Rx 
14.7485 -18.758 5.3
-15.0566 6.90237 3.05495
-31.1957 26.6298 1.6
10 3 -109.524 164.061 2.22323e-07 86.8167 -1.70411 93.1833 131.032
Tx-F-X-D-Rx 
14.7485 -18.758 5.3
-9.97573 9.65148 3.20538
-10.2303 9.94402 3.18381
-24.5804 26.433 1.96808
-31.1957 26.6298 1.6
11 1 -110.05 163.175 2.1742e-07 86.7448 -49.4405 93.2552 145.299
Tx-D-Rx 
14.7485 -18.758 5.3
-2.67641 -6.69178 4.09454
-31.1957 26.6298 1.6
12 1 -110.546 -42.6171 4.4435e-07 88.4079 8.59734 91.5921 66.0181
Tx-D-Rx 
14.7485 -18.758 5.3
39.708 37.3496 3.59315
-31.1957 26.6298 1.6
13 1 -110.581 77.254 2.61586e-07 87.2948 -6.11325 92.7052 104.62
Tx-D-Rx 
14.7485 -18.758 5.3
3.88922 22.8721 3.2672
-31.1957 26.6298 1.6
14 1 -111.338 -75.3343 2.79895e-07 90.6454 -44.1115 116.415 -40.288
Tx-DS-Rx 
14.7485 -18.758 5.3
21.7049 -24.655 0.770028
-31.1957 26.6298 1.6
15 3 -111.464 -18.7693 2.81881e-07 90.3069 -42.9114 113.072 -31.1476
Tx-F-X-DS-Rx 
14.7485 -18.758 5.3
19.0585 -21.3628 3.15485
19.3696 -21.5508 3
22.9785 -23.7319 1.20381
-31.1957 26.6298 1.6
16 3 -111.508 -19.3248 4.42489e-07 87.7019 7.25305 90.7603 64.7217
Tx-F-X-D-Rx 
14.7485 -18.758 5.3
37.9785 30.4337 4.57807
39.1193 32.8495 4.54262
40.4906 35.7534 4.5
-31.1957 26.6298 1.6
17 1 -111.769 44.7722 4.44354e-07 88.4079 8.62436 91.5921 66.0489
Tx-D-Rx 
14.7485 -18.758 5.3
39.6855 37.3804 3.59264
-31.1957 26.6298 1.6
18 2 -112.396 -50.0544 4.47634e-07 88.4196 8.59734 91.5804 -174.779
Tx-R-D-Rx 
14.7485 -18.758 5.3
14.0913 -18.818 5.28179
39.708 37.3496 3.57852
-31.1957 26.6298 1.6
19 1 -112.404 -156.42 2.18044e-07 86.7541 -40.7938 93.2459 118.199
Tx-D-Rx 
14.7485 -18.758 5.3
9.02201 -8.07758 4.61272
-31.1957 26.6298 1.6
20 2 -113.032 -150.188 4.45811e-07 87.6967 7.49321 90.7459 -173.778
Tx-R-D-Rx 
14.7485 -18.758 5.3
14.099 -18.8288 5.29149
40.288 36.0322 4.5
-31.1957 26.6298 1.6
21 1 -113.356 -123.123 2.22406e-07 86.8178 -29.947 93.1822 122.077
Tx-D-Rx 
14.7485 -18.758 5.3
-3.8089 10.8519 3.35721
-31.1957 26.6298 1.6
22 3 -113.375 91.6835 8.99496e-07 89.2136 135.797 90.7864 135.624
Tx-F-X-D-Rx 
14.7485 -18.758 5.3
-6.54055 2.0726 4.89116
-8.77154 4.25553 4.84831
-104.663 98.0824 3.00676
-31.1957 26.6298 1.6
23 3 -113.416 122.476 4.6034e-07 88.4632 9.56555 91.5368 64.7968
Tx-F-X-D-Rx 
14.7485 -18.758 5.3
38.0217 30.693 3.83371
39.0141 32.8017 3.77119
41.9073 38.9491 3.58891
-31.1957 26.6298 1.6
24 2 -113.442 59.7001 4.47637e-07 88.4196 8.62436 91.5804 -174.81
Tx-R-D-Rx 
14.7485 -18.758 5.3
14.0911 -18.8177 5.28179
39.6855 37.3804 3.57802
-31.1957 26.6298 1.6
25 1 -113.975 121.493 2.99623e-07 87.6385 -26.3777 92.3615 44.6139
Tx-D-Rx 
14.7485 -18.758 5.3
29.9948 -3.71572 4.41674
-31.1957 26.6298 1.6
3 25
-78.0635 2.16173e-07 5.62209e-08
1 0 -76.5469 34.7626 1.99295e-07 86.4484 -46.1354 93.5516 133.865
Tx-Rx 
14.7485 -18.758 5.3
-26.5608 24.2219 1.6
2 1 -83.3018 164.876 2.23922e-07 86.8394 121.681 93.1606 133.151
Tx-R-Rx 
14.7485 -18.758 5.3
-28.523 27.4013 1.8063
-26.5608 24.2219 1.6
3 3 -97.214 -66.8103 2.04125e-07 86.5325 -12.7857 93.4675 129.269
Tx-F-X-D-Rx 
14.7485 -18.758 5.3
-8.13079 9.22554 3.10981
-9.27793 10.6286 3
-18.9865 22.503 2.07062
-26.5608 24.2219 1.6
4 1 -97.3508 97.9861 2.28388e-07 96.5537 87.8542 93.8594 130.711
Tx-DS-Rx 
14.7485 -18.758 5.3
-26.3803 29.0405 1.04603
-26.5608 24.2219 1.6
5 1 -98.1122 -56.778 2.45568e-07 87.1183 -2.55618 92.8817 104.608
Tx-D-Rx 
14.7485 -18.758 5.3
3.90118 22.862 3.13493
-26.5608 24.2219 1.6
6 3 -98.6866 7.38958 4.29569e-07 88.3531 8.89082 91.6469 63.5525
Tx-F-X-D-Rx 
14.7485 -18.758 5.3
38.5948 29.1803 3.76057
40.7137 33.4398 3.62378
41.4181 34.856 3.5783
-26.5608 24.2219 1.6
7 3 -98.7744 98.1303 2.04126e-07 86.5325 -12.8786 93.4675 129.255
Tx-F-X-D-Rx 
14.7485 -18.758 5.3
-8.12255 9.22966 3.10994
-9.27071 10.6347 3
-18.9525 22.4824 2.07291
-26.5608 24.2219 1.6
8 5 -99.2667 -51.61 4.00028e-07 88.2314 -35.7097 91.7686 -79.8629
Tx-R-F-X-R-R-Rx 
14.7485 -18.758 5.3
14.9843 -20.0767 5.25863
19.4129 -22.5755 5.10163
20.8915 -23.4098 5.04921
39.3259 -33.811 4.39565
36.0513 -20.7855 3.98094
-26.5608 24.2219 1.6
9 3 -99.6874 -107.955 4.47167e-07 88.4179 10.0106 91.5821 62.346
Tx-F-X-D-Rx 
14.7485 -18.758 5.3
39.4631 28.4084 3.82928
42.0996 33.4398 3.67239
43.7751 36.6375 3.57268
-26.5608 24.2219 1.6
10 3 -99.7643 178.439 4.29569e-07 88.3531 8.91905 91.6469 63.5849
Tx-F-X-D-Rx 
14.7485 -18.758 5.3
38.5714 29.2011 3.76033
40.6769 33.4398 3.62425
41.3956 34.8868 3.5778
-26.5608 24.2219 1.6
11 1 -99.9453 -14.9889 2.24646e-07 81.7495 117.191 92.8536 132.883
Tx-DS-Rx 
14.7485 -18.758 5.3
-28.287 27.5819 2.14773
-26.5608 24.2219 1.6
12 3 -100.292 18.1494 4.63622e-07 88.4741 10.443 91.5259 60.7075
Tx-F-X-R-Rx 
14.7485 -18.758 5.3
40.8741 27.8115 3.87757
43.3897 32.2956 3.74061
46.4049 37.6703 3.57644
-26.5608 24.2219 1.6
13 3 -100.818 64.4212 4.47167e-07 88.4179 9.98316 91.5821 62.3146
Tx-F-X-D-Rx 
14.7485 -18.758 5.3
39.4856 28.3884 3.82948
42.136 33.4398 3.67192
43.7976 36.6067 3.57315
-26.5608 24.2219 1.6
14 2 -101.299 -177.148 4.42496e-07 88.4012 68.9791 91.5988 66.0489
Tx-D-R-Rx 
14.7485 -18.758 5.3
39.6855 37.3804 3.58546
-24.0133 30.8512 1.79822
-26.5608 24.2219 1.6
15 4 -102.29 -146.867 4.75385e-07 88.5118 67.0552 91.4882 63.3741
Tx-F-X-R-R-Rx 
14.7485 -18.758 5.3
38.7238 29.0656 3.9102
40.9168 33.4398 3.78309
44.4252 40.4381 3.57971
-23.6304 31.1441 1.79528
-26.5608 24.2219 1.6
16 2 -102.34 -19.4969 4.42497e-07 88.4012 69.0056 91.5988 66.0181
Tx-D-R-Rx 
14.7485 -18.758 5.3
39.708 37.3496 3.586
-24.0183 30.8474 1.79808
-26.5608 24.2219 1.6
17 3 -102.379 -120.232 4.61896e-07 88.4684 10.8355 91.5316 61.3713
Tx-F-X-D-Rx 
14.7485 -18.758 5.3
40.2777 28.0103 3.87532
42.9262 32.8621 3.72753
45.7666 38.0656 3.56901
-26.5608 24.2219 1.6
18 4 -103.352 -24.3861 4.39111e-07 88.3889 32.7362 91.6111 166.396
Tx-R-F-X-D-Rx 
14.7485 -18.758 5.3
13.9037 -18.5535 5.27555
17.7274 19.8061 4.19128
18.0316 22.8582 4.10501
21.23 54.9458 3.19801
-26.5608 24.2219 1.6
19 3 -103.495 47.5179 4.61897e-07 88.4684 10.8087 91.5316 61.3407
Tx-F-X-D-Rx 
14.7485 -18.758 5.3
40.3051 28.0011 3.87519
42.9476 32.8359 3.72787
45.7892 38.0348 3.56945
-26.5608 24.2219 1.6
20 6 -103.824 -37.3317 4.23818e-07 88.3307 111.515 91.6693 -78.8889
Tx-R-F-X-R-R-R-Rx 
14.7485 -18.758 5.3
15.0164 -20.122 5.25949
19.5252 -22.768 5.10714
20.4906 -23.3346 5.07451
38.8982 -34.1373 4.45252
34.8048 -18.9515 3.99417
-27.9784 27.8179 1.71265
-26.5608 24.2219 1.6
21 4 -103.88 148.695 4.39111e-07 88.3889 32.7534 91.6111 166.383
Tx-R-F-X-D-Rx 
14.7485 -18.758 5.3
13.9035 -18.5533 5.27555
17.7225 19.8477 4.19013
18.021 22.8501 4.10526
21.2139 54.9557 3.19778
-26.5608 24.2219 1.6
22 1 -104.959 129.022 2.45569e-07 87.1183 -2.5503 92.8817 104.612
Tx-D-Rx 
14.7485 -18.758 5.3
3.89713 22.8653 3.13472
-26.5608 24.2219 1.6
23 4 -105.316 -79.1139 4.67066e-07 88.4853 10.6432 91.5147 -169.803
Tx-R-F-X-R-Rx 
14.7485 -18.758 5.3
14.1279 -18.8696 5.28333
40.5854 27.9077 3.8623
43.199 32.5286 3.72192
46.2386 37.9028 3.55866
-26.5608 24.2219 1.6
24 3 -105.501 34.6368 9.16218e-07 89.2279 136.599 90.7721 135.624
Tx-F-X-D-Rx 
14.7485 -18.758 5.3
-6.54055 2.0726 4.89862
-8.77154 4.25553 4.85656
-104.663 98.0824 3.04862
-26.5608 24.2219 1.6
25 5 -105.779 -116.367 4.2227e-07 88.3246 111.987 91.6754 -30.8784
Tx-F-X-R-R-R-Rx 
14.7485 -18.758 5.3
19.0563 -21.3339 5.15319
22.0697 -23.1359 5.05049
39.5877 -33.6113 4.45348
35.9933 -20.7003 4.06148
-28.0047 27.7979 1.7128
-26.5608 24.2219 1.6
4 25
-77.0349 1.89943e-07 3.87512e-08
1 0 -75.7662 -13.4847 1.83283e-07 86.1376 -48.3734 93.8624 131.627
Tx-Rx 
14.7485 -18.758 5.3
-21.6565 22.2076 1.6
2 1 -95.9375 -84.6702 1.87254e-07 86.2197 -66.6736 93.7803 139.274
Tx-D-Rx 
14.7485 -18.758 5.3
-15.0566 6.90237 2.70131
-21.6565 22.2076 1.6
3 1 -96.7582 73.6916 1.83319e-07 86.1384 -47.0378 93.8616 130.639
Tx-D-Rx 
14.7485 -18.758 5.3
-5.77742 5.15686 3.17271
-21.6565 22.2076 1.6
4 5 -97.1528 107.154 4.48855e-07 88.4239 11.666 91.5761 59.4845
Tx-F-X-F-X-R-Rx 
14.7485 -18.758 5.3
42.395 28.1475 3.80186
43.8495 30.6152 3.72304
45.3216 33.1129 3.64327
45.4576 33.3435 3.6359
47.2837 36.4417 3.53695
-21.6565 22.2076 1.6
5 1 -97.4649 75.1768 1.87255e-07 86.2197 -66.6297 93.7803 139.294
Tx-D-Rx 
14.7485 -18.758 5.3
-15.0217 6.85381 2.70516
-21.6565 22.2076 1.6
6 1 -97.651 84.8533 2.29152e-07 86.9116 1.45187 93.0884 104.599
Tx-D-Rx 
14.7485 -18.758 5.3
3.90944 22.8556 2.97984
-21.6565 22.2076 1.6
7 1 -98.4712 61.8082 2.1536e-07 86.7136 39.8659 93.2864 122.103
Tx-D-Rx 
14.7485 -18.758 5.3
-14.6325 28.0735 2.12547
-21.6565 22.2076 1.6
8 1 -100.014 -154.263 2.42136e-07 93.2975 108.162 93.8221 128.44
Tx-DS-Rx 
14.7485 -18.758 5.3
-24.396 30.5585 1.09362
-21.6565 22.2076 1.6
9 6 -101.134 169.771 2.38443e-07 87.0321 124.872 92.9679 130.703
Tx-F-X-F-X-R-D-Rx 
14.7485 -18.758 5.3
-8.96464 8.80861 3.41473
-10.4132 10.4925 3.29957
-13.6614 14.2686 3.04133
-14.1812 14.8729 3
-26.3731 29.046 2.03071
-24.6369 26.4845 1.87027
-21.6565 22.2076 1.6
10 2 -101.813 175.476 3.17841e-07 87.7739 -74.1425 92.2261 117.865
Tx-R-D-Rx 
14.7485 -18.758 5.3
9.12248 -8.1165 4.83209
-6.52553 -31.06 3.75255
-21.6565 22.2076 1.6
11 4 -102.407 -4.39912 4.52332e-07 88.436 11.8633 91.564 -168.583
Tx-R-F-X-R-Rx 
14.7485 -18.758 5.3
14.1364 -18.8816 5.28295
41.9208 27.8888 3.79759
43.8163 31.0797 3.69626
47.1296 36.6571 3.51913
-21.6565 22.2076 1.6
12 2 -102.55 -9.09381 3.17841e-07 87.7739 -74.1611 92.2261 117.891
Tx-R-D-Rx 
14.7485 -18.758 5.3
9.11616 -8.11615 4.83196
-6.54506 -31.0568 3.75222
-21.6565 22.2076 1.6
13 1 -104.47 -89.7834 2.29152e-07 86.9116 1.45921 93.0884 104.604
Tx-D-Rx 
14.7485 -18.758 5.3
3.90528 22.8587 2.97962
-21.6565 22.2076 1.6
14 1 -104.847 -152.961 2.73717e-07 89.1632 58.2309 93.1249 115.026
Tx-DS-Rx 
14.7485 -18.758 5.3
-11.8043 38.1166 1.87331
-21.6565 22.2076 1.6
15 1 -105.281 110.071 1.84689e-07 86.1671 -44.6276 93.8329 118.232
Tx-D-Rx 
14.7485 -18.758 5.3
9.00137 -8.05422 4.48605
-21.6565 22.2076 1.6
16 6 -106.082 -128.652 4.36254e-07 88.3783 113.186 91.6217 -77.2023
Tx-R-F-X-R-R-R-Rx 
14.7485 -18.758 5.3
15.0781 -20.209 5.25787
19.7367 -23.1306 5.10219
19.8792 -23.2199 5.09743
38.1714 -34.6918 4.48614
32.3299 -15.3102 3.91305
-25.0266 30.076 1.84234
-21.6565 22.2076 1.6
17 1 -106.153 70.4508 1.83834e-07 86.1492 -41.8083 93.8508 128.614
Tx-D-Rx 
14.7485 -18.758 5.3
-8.75438 10.6685 2.76509
-21.6565 22.2076 1.6
18 3 -106.235 117.419 2.41591e-07 80.3574 139.672 92.0449 132.704
Tx-F-X-DS-Rx 
14.7485 -18.758 5.3
-4.61677 2.22534 4.28047
-8.85753 6.82043 4.0572
-28.1293 27.7025 3.04259
-21.6565 22.2076 1.6
19 2 -107.214 -59.6737 2.69838e-07 87.3776 94.1664 92.6224 104.641
Tx-D-R-Rx 
14.7485 -18.758 5.3
3.86696 22.8943 3.32826
-22.3773 32.1028 2.05441
-21.6565 22.2076 1.6
20 1 -107.579 80.4909 1.87348e-07 86.2216 -61.1933 93.7784 142.83
Tx-D-Rx 
14.7485 -18.758 5.3
-9.05333 -0.71102 3.32734
-21.6565 22.2076 1.6
21 1 -107.624 -40.5218 1.8413e-07 86.1555 -37.021 93.8445 128.954
Tx-D-Rx 
14.7485 -18.758 5.3
-13.2385 15.8594 2.30852
-21.6565 22.2076 1.6
22 6 -108.012 -147.895 4.48857e-07 88.4239 11.4793 91.5761 59.3128
Tx-F-X-F-X-R-D-Rx 
14.7485 -18.758 5.3
42.6756 28.3005 3.79431
43.871 30.3148 3.72986
45.3216 32.7593 3.65165
45.6968 33.3914 3.63142
47.4057 36.2711 3.53929
41.4819 35.0294 3.37275
-21.6565 22.2076 1.6
23 1 -108.369 152.827 1.83444e-07 86.141 -45.5652 93.859 129.559
Tx-D-Rx 
14.7485 -18.758 5.3
-5.37114 5.59777 3.16907
-21.6565 22.2076 1.6
24 3 -108.406 136.534 2.5159e-07 85.5616 67.6915 92.4826 120.571
Tx-F-X-DS-Rx 
14.7485 -18.758 5.3
0.608537 5.17934 4.0946
-0.50115 7.05791 4
-16.6532 34.4016 2.62307
-21.6565 22.2076 1.6
25 4 -108.638 -96.7278 2.38472e-07 87.0324 126.26 92.9676 131.044
Tx-F-X-D-R-Rx 
14.7485 -18.758 5.3
-10.0535 9.72926 3.34193
-10.224 9.9251 3.32847
-24.6144 26.4537 2.19238
-26.5648 28.8994 2.03022
-21.6565 22.2076 1.6
5 25
-75.1604 1.71042e-07 3.77318e-08
1 0 -74.7937 -127.561 1.64992e-07 85.7087 -48.2574 94.2913 131.743
Tx-Rx 
14.7485 -18.758 5.3
-18.0806 18.0335 1.6
2 2 -96.8309 103.041 2.71669e-07 87.3953 109.465 92.6047 106.051
Tx-D-R-Rx 
14.7485 -18.758 5.3
5.9718 11.7473 3.85598
-22.9093 31.6958 2.25919
-18.0806 18.0335 1.6
3 1 -97.1654 -42.2405 1.65046e-07 85.7101 -46.3047 94.2899 130.639
Tx-D-Rx 
14.7485 -18.758 5.3
-5.77742 5.15686 2.93593
-18.0806 18.0335 1.6
4 1 -97.2996 167.648 2.18946e-07 86.7675 12.32 93.2325 104.576
Tx-D-Rx 
14.7485 -18.758 5.3
3.93103 22.8408 2.87247
-18.0806 18.0335 1.6
5 5 -98.3882 -127.384 3.65018e-07 88.0617 -35.6703 91.9383 -79.9023
Tx-R-F-X-R-R-Rx 
14.7485 -18.758 5.3
14.983 -20.075 5.25473
19.4085 -22.5679 5.08283
20.9085 -23.4129 5.02457
39.3433 -33.7977 4.30852
36.0993 -20.8561 3.857
-18.0806 18.0335 1.6
6 2 -98.6789 -88.3254 2.7167e-07 87.3953 109.418 92.6047 106.123
Tx-D-R-Rx 
14.7485 -18.758 5.3
5.90205 11.8444 3.85085
-22.8994 31.7033 2.25937
-18.0806 18.0335 1.6
7 1 -102.057 -57.196 1.69882e-07 85.8325 -67.3809 94.1675 141.705
Tx-D-Rx 
14.7485 -18.758 5.3
-11.3315 1.83496 2.87867
-18.0806 18.0335 1.6
8 1 -103.033 -4.60473 2.18946e-07 86.7675 12.3108 93.2325 104.572
Tx-D-Rx 
14.7485 -18.758 5.3
3.9355 22.8381 2.87268
-18.0806 18.0335 1.6
9 1 -103.462 135.854 2.59394e-07 92.1025 114.215 93.8347 127.859
Tx-DS-Rx 
14.7485 -18.758 5.3
-23.8883 30.9469 1.08019
-18.0806 18.0335 1.6
10 1 -104.097 -41.537 1.69539e-07 85.824 -64.2848 94.176 142.83
Tx-D-Rx 
14.7485 -18.758 5.3
-9.05333 -0.71102 3.11906
-18.0806 18.0335 1.6
11 1 -104.112 -111.751 2.85101e-07 89.2886 71.3905 93.1191 114.293
Tx-DS-Rx 
14.7485 -18.758 5.3
-11.1491 38.6186 1.86969
-18.0806 18.0335 1.6
12 1 -104.154 -12.5725 1.66468e-07 85.7468 -43.9287 94.2532 118.232
Tx-D-Rx 
14.7485 -18.758 5.3
9.00137 -8.05422 4.39649
-18.0806 18.0335 1.6
13 4 -104.431 -160.049 2.85001e-07 87.5172 98.5865 92.4828 104.647
Tx-F-X-D-R-Rx 
14.7485 -18.758 5.3
7.50003 8.97528 4.05711
7.16697 10.2496 4
3.86007 22.9021 3.43297
-20.4299 33.5925 2.28228
-18.0806 18.0335 1.6
14 1 -104.741 68.0694 1.69885e-07 85.8325 -67.3369 94.1675 141.734
Tx-D-Rx 
14.7485 -18.758 5.3
-11.2966 1.7864 2.8829
-18.0806 18.0335 1.6
15 5 -105.479 93.8051 4.40282e-07 88.3932 13.7563 91.6068 57.3942
Tx-F-X-R-F-X-Rx 
14.7485 -18.758 5.3
45.8393 29.8466 3.68147
48.2508 33.6165 3.55593
48.7482 34.3941 3.53003
42.8534 32.951 3.35979
38.4353 31.8694 3.23219
-18.0806 18.0335 1.6
16 4 -105.54 -37.5572 4.81835e-07 88.5318 69.6927 91.4682 -175.378
Tx-R-R-R-D-Rx 
14.7485 -18.758 5.3
14.0867 -18.8115 5.28298
41.9189 43.942 3.52345
-10.2389 39.316 2.18134
-14.3104 28.2216 1.87844
-18.0806 18.0335 1.6
17 1 -106.361 137.743 1.65775e-07 85.729 -38.2987 94.271 128.614
Tx-D-Rx 
14.7485 -18.758 5.3
-8.75438 10.6685 2.48749
-18.0806 18.0335 1.6
18 6 -106.452 42.4549 2.56658e-07 87.2429 124.952 92.7571 130.639
Tx-D-F-X-F-X-R-Rx 
14.7485 -18.758 5.3
-5.77742 5.15686 3.78227
-8.86865 8.85661 3.55009
-10.5311 10.8463 3.42523
-13.3905 14.2686 3.21046
-14.9281 16.1089 3.09497
-25.9853 29.3427 2.26448
-18.0806 18.0335 1.6
19 4 -106.642 60.0219 4.61622e-07 88.4675 43.2556 91.5325 91.1358
Tx-F-X-R-D-Rx 
14.7485 -18.758 5.3
14.1268 12.5996 4.46089
13.9941 19.2898 4.28186
13.2404 57.305 3.2646
21.1978 54.9902 3.04289
-18.0806 18.0335 1.6
20 1 -106.645 64.0605 1.66704e-07 85.7529 -24.1803 94.2471 128.954
Tx-D-Rx 
14.7485 -18.758 5.3
-13.2385 15.8594 1.99417
-18.0806 18.0335 1.6
21 5 -106.731 33.8626 3.65018e-07 88.0617 -35.7254 91.9383 -79.9891
Tx-R-F-X-R-D-Rx 
14.7485 -18.758 5.3
14.9803 -20.0711 5.25487
19.3988 -22.5514 5.08339
20.9463 -23.42 5.02334
39.3817 -33.7684 4.30787
36.2043 -21.0107 3.86294
-18.0806 18.0335 1.6
22 3 -107.153 -20.6568 7.20756e-07 89.0185 -92.2243 90.9815 69.9082
Tx-R-R-D-Rx 
14.7485 -18.758 5.3
39.1164 47.86 4.08478
-0.199966 47.0074 3.41107
-19.5166 -18.9378 2.23385
-18.0806 18.0335 1.6
23 4 -107.264 -127.216 4.61622e-07 88.4675 43.2381 91.5325 91.147
Tx-F-X-R-D-Rx 
14.7485 -18.758 5.3
14.1207 12.5992 4.4609
13.9867 19.2903 4.28185
13.2258 57.2938 3.26489
21.2022 54.9717 3.04263
-18.0806 18.0335 1.6
24 1 -107.513 -133.679 1.7016e-07 85.8393 -74.6979 94.1607 139.294
Tx-D-Rx 
14.7485 -18.758 5.3
-15.0217 6.85381 2.44317
-18.0806 18.0335 1.6
25 1 -107.913 -137.275 1.68377e-07 85.7951 -58.0765 94.2049 145.299
Tx-D-Rx 
14.7485 -18.758 5.3
-2.67641 -6.69178 3.74174
-18.0806 18.0335 1.6
6 25
-74.8432 1.53858e-07 4.85881e-08
1 0 -73.7211 81.8757 1.46755e-07 85.1743 -47.7242 94.8257 132.276
Tx-Rx 
14.7485 -18.758 5.3
-14.7333 13.6696 1.6
2 2 -93.7744 -117.4 4.88689e-07 88.5524 71.8827 91.4476 68.1173
Tx-R-R-Rx 
14.7485 -18.758 5.3
40.6463 45.7211 3.54401
-5.03858 43.3003 2.38787
-14.7333 13.6696 1.6
3 1 -95.2143 -139.973 1.51762e-07 85.3338 -68.4473 94.6662 142.83
Tx-D-Rx 
14.7485 -18.758 5.3
-9.05333 -0.71102 2.86199
-14.7333 13.6696 1.6
4 1 -97.3175 9.1022 1.51764e-07 85.3339 -68.4107 94.6661 142.852
Tx-D-Rx 
14.7485 -18.758 5.3
-9.03003 -0.743088 2.86511
-14.7333 13.6696 1.6
5 4 -97.9717 132.923 2.91436e-07 87.5721 100.012 92.4279 104.647
Tx-F-X-D-R-Rx 
14.7485 -18.758 5.3
7.50003 8.97528 4.0846
6.99546 10.9058 4
3.86007 22.9021 3.47427
-18.186 33.2273 2.44207
-14.7333 13.6696 1.6
6 1 -99.0166 49.3777 2.13156e-07 86.6796 26.0867 93.3204 104.541
Tx-D-Rx 
14.7485 -18.758 5.3
3.96323 22.8235 2.80775
-14.7333 13.6696 1.6
7 1 -99.8238 -91.9691 1.46907e-07 85.1793 -43.5468 94.8207 130.639
Tx-D-Rx 
14.7485 -18.758 5.3
-5.77742 5.15686 2.64207
-14.7333 13.6696 1.6
8 4 -100.915 -37.0708 2.91436e-07 87.5721 100.009 92.4279 104.65
Tx-F-X-D-R-Rx 
14.7485 -18.758 5.3
7.4986 8.97495 4.0846
6.99394 10.9054 4
3.85673 22.9062 3.47407
-18.1851 33.2279 2.4421
-14.7333 13.6696 1.6
9 1 -102.264 -114.008 1.52464e-07 85.3553 -73.8698 94.6447 141.734
Tx-D-Rx 
14.7485 -18.758 5.3
-11.2966 1.7864 2.60498
-14.7333 13.6696 1.6
10 1 -104.754 86.4294 2.99958e-07 89.5557 80.5093 93.1721 113.544
Tx-DS-Rx 
14.7485 -18.758 5.3
-10.4762 39.1342 1.80022
-14.7333 13.6696 1.6
11 5 -105.171 -55.7498 4.33224e-07 88.367 15.9795 91.633 55.171
Tx-R-F-X-F-X-Rx 
14.7485 -18.758 5.3
50.2598 32.2809 3.52737
48.8952 31.8901 3.48691
45.4487 30.9032 3.3847
43.8614 30.4486 3.33763
38.7988 28.9989 3.1875
-14.7333 13.6696 1.6
12 1 -105.265 8.09609 1.54738e-07 85.4238 -14.463 94.5762 122.077
Tx-D-Rx 
14.7485 -18.758 5.3
-3.8089 10.8519 2.50301
-14.7333 13.6696 1.6
13 1 -105.343 -13.8306 1.52468e-07 85.3555 -73.9629 94.6445 141.705
Tx-D-Rx 
14.7485 -18.758 5.3
-11.3315 1.83496 2.60038
-14.7333 13.6696 1.6
14 3 -105.977 -171.336 9.69084e-07 89.27 136.813 90.73 135.624
Tx-F-X-D-Rx 
14.7485 -18.758 5.3
-6.54055 2.0726 4.92052
-8.77154 4.25553 4.88075
-104.663 98.0824 3.17146
-14.7333 13.6696 1.6
15 1 -106.106 -72.1888 2.77147e-07 91.5213 117.333 93.8352 127.674
Tx-DS-Rx 
14.7485 -18.758 5.3
-23.7271 31.0702 1.0798
-14.7333 13.6696 1.6
16 1 -106.29 162.733 1.50187e-07 85.2848 -59.3683 94.7152 145.299
Tx-D-Rx 
14.7485 -18.758 5.3
-2.67641 -6.69178 3.5518
-14.7333 13.6696 1.6
17 5 -106.509 164.676 4.53114e-07 88.4387 -11.5738 91.5613 141.734
Tx-D-F-X-R-R-Rx 
14.7485 -18.758 5.3
-11.2966 1.7864 4.39582
-18.1368 20.9379 3.84151
-19.3443 24.3187 3.74366
-22.1788 32.2546 3.51397
12.5792 8.07613 2.3599
-14.7333 13.6696 1.6
18 1 -106.624 -13.8125 1.48498e-07 85.231 -26.6543 94.769 128.614
Tx-D-Rx 
14.7485 -18.758 5.3
-8.75438 10.6685 2.15811
-14.7333 13.6696 1.6
19 5 -106.818 162.77 4.53114e-07 88.4387 -11.583 91.5613 141.705
Tx-D-F-X-R-R-Rx 
14.7485 -18.758 5.3
-11.3315 1.83496 4.39425
-18.1478 20.9291 3.84164
-19.357 24.3166 3.7436
-22.1882 32.2474 3.51407
12.5774 8.07192 2.35988
-14.7333 13.6696 1.6
20 1 -106.864 -127.255 2.13156e-07 86.6796 26.0757 93.3204 104.535
Tx-D-Rx 
14.7485 -18.758 5.3
3.96799 22.8214 2.80794
-14.7333 13.6696 1.6
21 3 -107.33 139.537 4.91895e-07 88.5618 71.6426 91.4382 -177.173
Tx-R-R-R-Rx 
14.7485 -18.758 5.3
14.0724 -18.7914 5.28301
40.4244 46.0314 3.52619
-4.85395 43.4417 2.38755
-14.7333 13.6696 1.6
22 1 -107.388 55.1373 2.10287e-07 90.8762 -46.6722 116.426 -41.5836
Tx-DS-Rx 
14.7485 -18.758 5.3
21.5339 -24.7789 0.791672
-14.7333 13.6696 1.6
23 1 -109.014 53.895 4.55933e-07 88.2088 33.8164 91.3616 70.9381
Tx-DS-Rx 
14.7485 -18.758 5.3
38.2068 49.1317 3.59272
-14.7333 13.6696 1.6
24 3 -109.395 16.9853 2.11257e-07 90.3518 -45.3258 113.132 -34.103
Tx-F-X-DS-Rx 
14.7485 -18.758 5.3
19.0839 -21.6936 3.06328
19.2066 -21.7767 3
22.5514 -24.0415 1.27439
-14.7333 13.6696 1.6
25 4 -109.882 -29.0939 9.69083e-07 89.27 136.771 90.73 135.655
Tx-F-X-R-R-Rx 
14.7485 -18.758 5.3
-6.5675 2.07645 4.92024
-8.76169 4.22106 4.88115
-104.253 97.5548 3.1799
-104.592 98.1391 3.17129
-14.7333 13.6696 1.6
7 25
-72.7936 1.39573e-07 4.83406e-08
1 0 -72.5196 133.816 1.28526e-07 84.4878 -47.1803 95.5122 132.82
Tx-Rx 
14.7485 -18.758 5.3
-11.3113 9.36462 1.6
2 1 -87.1768 -150.174 2.1639e-07 86.7293 -17.5713 93.2707 44.6139
Tx-D-Rx 
14.7485 -18.758 5.3
29.9948 -3.71572 4.07604
-11.3113 9.36462 1.6
3 1 -88.8051 11.2222 2.16391e-07 86.7293 -17.6143 93.2707 44.5268
Tx-D-Rx 
14.7485 -18.758 5.3
30.0038 -3.75261 4.07716
-11.3113 9.36462 1.6
4 1 -93.8396 -8.66321 1.56558e-07 85.4771 -23.1732 94.5229 82.8495
Tx-D-Rx 
14.7485 -18.758 5.3
16.7686 -2.65492 4.01619
-11.3113 9.36462 1.6
5 2 -93.8634 6.34365 4.99022e-07 88.5824 73.6424 91.4176 69.8769
Tx-R-R-Rx 
14.7485 -18.758 5.3
39.1437 47.8219 3.54518
-0.280899 46.9454 2.56927
-11.3113 9.36462 1.6
6 1 -95.1873 161.037 1.56558e-07 85.4771 -23.2053 94.5229 82.7884
Tx-D-Rx 
14.7485 -18.758 5.3
16.783 -2.67967 4.018
-11.3113 9.36462 1.6
7 1 -97.9056 88.3754 2.11611e-07 86.6553 41.2804 93.3447 104.495
Tx-D-Rx 
14.7485 -18.758 5.3
4.00229 22.8087 2.79091
-11.3113 9.36462 1.6
8 3 -99.2821 74.6644 5.02164e-07 88.5912 73.396 91.4088 -178.927
Tx-R-R-R-Rx 
14.7485 -18.758 5.3
14.0579 -18.7709 5.28301
38.9064 48.1537 3.52737
-0.0531191 47.12 2.56891
-11.3113 9.36462 1.6
9 1 -100.146 -41.7128 1.3041e-07 84.5677 -40.6143 95.4323 118.232
Tx-D-Rx 
14.7485 -18.758 5.3
9.00137 -8.05422 4.14466
-11.3113 9.36462 1.6
10 1 -100.309 -128.697 1.34683e-07 84.7405 -77.2816 95.2595 142.852
Tx-D-Rx 
14.7485 -18.758 5.3
-9.03003 -0.743088 2.55385
-11.3113 9.36462 1.6
11 6 -100.556 -2.2166 4.54577e-07 88.4437 77.0475 91.5563 74.3699
Tx-F-X-D-F-X-R-Rx 
14.7485 -18.758 5.3
24.772 17.0698 4.28922
25.4924 19.6447 4.21657
32.1415 43.4109 3.54608
12.447 44.1439 3.01062
12.0562 44.1584 3
-3.17847 44.7254 2.5858
-11.3113 9.36462 1.6
12 2 -100.941 58.0553 2.20146e-07 86.7851 -17.5713 93.2149 -153.443
Tx-R-D-Rx 
14.7485 -18.758 5.3
14.2319 -19.0162 5.26756
29.9948 -3.71572 4.03367
-11.3113 9.36462 1.6
13 6 -101.103 172.065 4.54578e-07 88.4437 77.035 91.5563 74.3837
Tx-F-X-D-F-X-R-Rx 
14.7485 -18.758 5.3
24.7643 17.0754 4.28913
25.482 19.6432 4.21669
32.1299 43.4269 3.54574
12.4422 44.1554 3.01048
12.0567 44.1696 3
-3.16863 44.733 2.58606
-11.3113 9.36462 1.6
14 1 -101.883 51.6722 1.28948e-07 84.5059 -37.248 95.4941 130.639
Tx-D-Rx 
14.7485 -18.758 5.3
-5.77742 5.15686 2.26867
-11.3113 9.36462 1.6
15 2 -102.204 -157.012 2.20147e-07 86.7852 -17.6143 93.2148 -153.36
Tx-R-D-Rx 
14.7485 -18.758 5.3
14.2324 -19.0169 5.26757
30.0038 -3.75261 4.03476
-11.3113 9.36462 1.6
16 2 -102.501 -156.495 1.4553e-07 85.1335 -36.3769 94.8665 142.898
Tx-D-R-Rx 
14.7485 -18.758 5.3
-9.02106 -0.77998 2.76258
-5.8715 5.35744 2.17525
-11.3113 9.36462 1.6
17 1 -102.685 -81.6351 2.11612e-07 86.6553 41.293 93.3447 104.501
Tx-D-Rx 
14.7485 -18.758 5.3
3.9973 22.8102 2.79075
-11.3113 9.36462 1.6
18 1 -103.985 178.335 1.32131e-07 84.6387 -61.7293 95.3613 145.299
Tx-D-Rx 
14.7485 -18.758 5.3
-2.67641 -6.69178 3.31093
-11.3113 9.36462 1.6
19 1 -104.827 -55.9243 1.34688e-07 84.7407 -77.3685 95.2593 142.83
Tx-D-Rx 
14.7485 -18.758 5.3
-9.05333 -0.71102 2.55047
-11.3113 9.36462 1.6
20 1 -104.928 -79.517 1.38625e-07 84.8905 -7.81571 95.1095 120.651
Tx-D-Rx 
14.7485 -18.758 5.3
-1.0853 7.96098 2.52293
-11.3113 9.36462 1.6
21 1 -105.243 68.2228 3.17304e-07 89.0255 86.7073 92.8705 112.53
Tx-DS-Rx 
14.7485 -18.758 5.3
-9.55815 39.8376 2.11919
-11.3113 9.36462 1.6
22 4 -105.516 134.073 4.17122e-07 88.3039 -2.62131 91.6961 119.04
Tx-F-X-R-D-Rx 
14.7485 -18.758 5.3
1.24178 5.56846 4.4761
-2.08458 11.5595 4.27319
-15.33 35.4153 3.46522
12.661 8.26711 2.31058
-11.3113 9.36462 1.6
23 1 -106.377 -2.14487 1.9202e-07 90.9772 -46.1118 116.426 -41.5916
Tx-DS-Rx 
14.7485 -18.758 5.3
21.5329 -24.7797 0.791867
-11.3113 9.36462 1.6
24 1 -106.537 100.969 1.30411e-07 84.5678 -40.6234 95.4322 118.199
Tx-D-Rx 
14.7485 -18.758 5.3
9.02201 -8.07758 4.14756
-11.3113 9.36462 1.6
25 1 -106.626 -145.48 1.35747e-07 84.7819 26.3464 95.2181 128.594
Tx-D-Rx 
14.7485 -18.758 5.3
-8.72036 10.6478 1.86405
-11.3113 9.36462 1.6
8 25
-69.8205 1.13532e-07 3.47998e-08
1 0 -71.1491 72.4058 1.10285e-07 83.5725 -47.3137 96.4275 132.686
Tx-Rx 
14.7485 -18.758 5.3
-7.51924 5.38493 1.6
2 1 -94.4738 171.539 1.11692e-07 83.6539 -8.94227 96.3461 130.572
Tx-D-Rx 
14.7485 -18.758 5.3
-5.67537 5.09479 1.80759
-7.51924 5.38493 1.6
3 1 -96.7919 87.5556 1.12279e-07 83.6872 -39.1276 96.3128 118.232
Tx-D-Rx 
14.7485 -18.758 5.3
9.00137 -8.05422 3.95598
-7.51924 5.38493 1.6
4 1 -97.399 28.2581 1.14803e-07 83.8265 -68.149 96.1735 145.299
Tx-D-Rx 
14.7485 -18.758 5.3
-2.67641 -6.69178 3.00742
-7.51924 5.38493 1.6
5 1 -100.375 -69.4898 2.13299e-07 86.6818 56.4311 93.3182 104.452
Tx-D-Rx 
14.7485 -18.758 5.3
4.03786 22.8003 2.81181
-7.51924 5.38493 1.6
6 1 -100.838 96.359 1.11705e-07 83.6546 -7.45984 96.3454 130.639
Tx-D-Rx 
14.7485 -18.758 5.3
-5.77742 5.15686 1.79535
-7.51924 5.38493 1.6
7 1 -101.237 -120.898 1.12281e-07 83.6873 -39.1413 96.3127 118.199
Tx-D-Rx 
14.7485 -18.758 5.3
9.02201 -8.07758 3.95935
-7.51924 5.38493 1.6
8 1 -101.444 136.683 1.14806e-07 83.8267 -68.1064 96.1733 145.334
Tx-D-Rx 
14.7485 -18.758 5.3
-2.65311 -6.72384 3.01153
-7.51924 5.38493 1.6
9 1 -101.726 58.1822 1.21231e-07 84.155 -103.849 95.845 142.852
Tx-D-Rx 
14.7485 -18.758 5.3
-9.03003 -0.743088 2.24611
-7.51924 5.38493 1.6
10 2 -101.821 -29.5633 7.19546e-07 89.0169 155.824 90.9831 143.705
Tx-R-R-Rx 
14.7485 -18.758 5.3
-83.4085 53.332 3.21011
-76.1046 36.1738 2.8901
-7.51924 5.38493 1.6
11 1 -102.561 -42.4305 2.00643e-07 86.4723 -13.6862 93.5277 44.5268
Tx-D-Rx 
14.7485 -18.758 5.3
30.0038 -3.75261 3.98083
-7.51924 5.38493 1.6
12 4 -103.02 90.4826 3.23812e-07 87.815 106.036 92.185 104.656
Tx-F-X-D-R-Rx 
14.7485 -18.758 5.3
7.49589 8.97431 4.2063
6.12782 14.2055 4
3.85026 22.9144 3.65654
-16.0027 34.9 2.77172
-7.51924 5.38493 1.6
13 2 -104.409 -46.7253 1.42695e-07 85.0366 -18.3582 94.9634 170.75
Tx-R-D-Rx 
14.7485 -18.758 5.3
13.9573 -18.6291 5.23039
16.783 -2.67967 3.82369
-7.51924 5.38493 1.6
14 1 -104.488 -7.30168 2.0065e-07 86.4724 -13.6361 93.5276 44.6139
Tx-D-Rx 
14.7485 -18.758 5.3
29.9948 -3.71572 3.97968
-7.51924 5.38493 1.6
15 2 -105.084 161.622 5.19847e-07 88.6392 -25.0269 91.3608 33.522
Tx-R-D-Rx 
14.7485 -18.758 5.3
69.3434 17.4077 3.7443
29.4109 -11.857 2.56821
-7.51924 5.38493 1.6
16 1 -105.239 -141.118 1.7369e-07 91.1052 -46.0777 116.425 -41.5982
Tx-DS-Rx 
14.7485 -18.758 5.3
21.532 -24.7803 0.792055
-7.51924 5.38493 1.6
17 4 -105.767 -79.6042 3.23812e-07 87.815 106.034 92.185 104.658
Tx-F-X-D-R-Rx 
14.7485 -18.758 5.3
7.49462 8.97401 4.2063
6.12632 14.2051 4
3.84713 22.9186 3.65636
-16.0017 34.9007 2.77174
-7.51924 5.38493 1.6
18 1 -106.067 -79.4273 3.32612e-07 89.0953 92.5639 92.8353 112.004
Tx-DS-Rx 
14.7485 -18.758 5.3
-9.07842 40.2051 2.15041
-7.51924 5.38493 1.6
19 3 -106.179 133.691 1.75817e-07 90.5368 -43.6845 113.074 -31.1943
Tx-F-X-DS-Rx 
14.7485 -18.758 5.3
19.0589 -21.3678 3.15346
19.367 -21.5544 3
22.9716 -23.7369 1.20496
-7.51924 5.38493 1.6
20 2 -106.262 98.3534 1.42697e-07 85.0367 -18.3157 94.9633 170.688
Tx-R-D-Rx 
14.7485 -18.758 5.3
13.9566 -18.6281 5.23031
16.7686 -2.65492 3.82181
-7.51924 5.38493 1.6
21 4 -106.565 47.4646 5.51214e-07 88.7166 -104.744 91.2834 70.7417
Tx-R-R-D-R-Rx 
14.7485 -18.758 5.3
38.3821 48.8866 3.69471
1.91315 48.6264 2.87767
-8.58696 10.7459 1.99703
-9.11689 -0.686015 1.74064
-7.51924 5.38493 1.6
22 1 -106.676 115.725 2.13299e-07 86.6818 56.4181 93.3182 104.446
Tx-D-Rx 
14.7485 -18.758 5.3
4.04302 22.7994 2.81193
-7.51924 5.38493 1.6
23 2 -106.709 163.968 4.42704e-07 88.402 98.971 91.598 51.2065
Tx-D-R-Rx 
14.7485 -18.758 5.3
40.8176 13.673 4.13916
-12.5913 37.5137 2.50744
-7.51924 5.38493 1.6
24 9 -106.809 -27.2815 3.11396e-07 87.7278 125.562 92.2722 129.27
Tx-F-X-F-X-F-X-F-X-R-Rx 
14.7485 -18.758 5.3
-3.11104 3.08557 4.18047
-5.99005 6.60681 4
-8.13104 9.22541 3.86579
-10.2394 11.804 3.73363
-12.3022 14.3271 3.60432
-14.6172 17.1585 3.4592
-17.8772 21.1456 3.25485
-20.3363 24.1534 3.1007
-25.1202 30.0044 2.80082
-7.51924 5.38493 1.6
25 5 -107.617 117.443 5.54323e-07 88.7238 -104.744 91.2762 -179.782
Tx-R-R-R-D-R-Rx 
14.7485 -18.758 5.3
14.0506 -18.7606 5.28445
38.1426 49.2215 3.67769
2.14527 48.8043 2.87571
-8.58696 10.7459 1.9948
-9.11689 -0.686015 1.73985
-7.51924 5.38493 1.6
9 25
-70.2442 9.90748e-08 4.27504e-08
1 0 -69.7537 170.909 9.4282e-08 82.4757 -50.8762 97.5243 129.124
Tx-Rx 
14.7485 -18.758 5.3
-2.92738 2.97377 1.6
2 1 -92.5701 108.57 2.29993e-07 86.9229 36.1448 93.0771 81.2436
Tx-R-Rx 
14.7485 -18.758 5.3
20.7608 20.2759 3.17692
-2.92738 2.97377 1.6
3 1 -97.3729 -122.47 6.54644e-07 88.9194 -50.3304 91.0806 -50.1486
Tx-R-Rx 
14.7485 -18.758 5.3
68.623 -83.3023 3.71417
-2.92738 2.97377 1.6
4 1 -97.6844 63.0287 9.55452e-08 82.5758 -42.753 97.4242 118.232
Tx-D-Rx 
14.7485 -18.758 5.3
9.00137 -8.05422 3.71689
-2.92738 2.97377 1.6
5 4 -98.0772 -9.47554 5.12655e-07 88.6201 77.3172 91.3799 73.5517
Tx-F-X-R-R-Rx 
14.7485 -18.758 5.3
25.2759 16.9001 4.40437
26.1123 19.7332 4.33321
35.7895 52.5113 3.50992
8.47849 53.6566 2.85144
-2.92738 2.97377 1.6
6 2 -98.2095 38.5374 6.54954e-07 88.9199 -50.6626 91.0801 -59.4796
Tx-R-R-Rx 
14.7485 -18.758 5.3
18.1896 -24.5951 5.17225
68.1234 -83.718 3.71323
-2.92738 2.97377 1.6
7 1 -99.5571 -77.2007 2.29993e-07 86.9229 36.1044 93.0771 81.2136
Tx-D-Rx 
14.7485 -18.758 5.3
20.78 20.2643 3.17738
-2.92738 2.97377 1.6
8 2 -101.238 -125.163 2.54395e-07 87.2183 16.0554 92.7817 104.241
Tx-D-R-Rx 
14.7485 -18.758 5.3
4.19705 22.8164 3.21596
12.2665 7.34644 2.3682
-2.92738 2.97377 1.6
9 1 -102.411 -107.439 2.29994e-07 86.9229 36.3201 93.0771 81.3735
Tx-D-Rx 
14.7485 -18.758 5.3
20.6779 20.3263 3.17492
-2.92738 2.97377 1.6
10 1 -102.749 54.2418 1.23941e-07 84.2832 -148.367 95.7168 142.898
Tx-D-Rx 
14.7485 -18.758 5.3
-9.02106 -0.77998 2.31649
-2.92738 2.97377 1.6
11 2 -102.84 -93.189 5.02568e-07 88.5924 -24.6368 91.4076 33.522
Tx-R-D-Rx 
14.7485 -18.758 5.3
69.3434 17.4077 3.69079
29.4109 -11.857 2.47423
-2.92738 2.97377 1.6
12 1 -104.084 25.4088 1.57403e-07 91.2513 -48.6077 116.425 -41.5869
Tx-DS-Rx 
14.7485 -18.758 5.3
21.5335 -24.7792 0.791934
-2.92738 2.97377 1.6
13 2 -104.324 64.254 2.54395e-07 87.2183 16.0465 92.7817 104.248
Tx-D-R-Rx 
14.7485 -18.758 5.3
4.19216 22.8145 3.21599
12.2652 7.34351 2.3681
-2.92738 2.97377 1.6
14 3 -105.008 -1.51758 1.59292e-07 90.6087 -45.8803 113.073 -31.1811
Tx-F-X-DS-Rx 
14.7485 -18.758 5.3
19.0588 -21.3664 3.15389
19.3678 -21.5535 3
22.9735 -23.7355 1.20471
-2.92738 2.97377 1.6
15 1 -105.143 -178.378 1.83966e-07 86.152 -11.5442 93.848 44.5268
Tx-D-Rx 
14.7485 -18.758 5.3
30.0038 -3.75261 3.86073
-2.92738 2.97377 1.6
16 2 -106.369 -57.6865 1.58832e-07 91.3304 -48.2657 115.708 -75.7733
Tx-R-DS-Rx 
14.7485 -18.758 5.3
15.1377 -20.293 4.53763
21.7132 -24.649 0.740358
-2.92738 2.97377 1.6
17 1 -106.512 131.386 3.43999e-07 89.1525 98.5952 92.8175 111.492
Tx-DS-Rx 
14.7485 -18.758 5.3
-8.60924 40.5646 2.16236
-2.92738 2.97377 1.6
18 2 -106.552 0.636174 3.68825e-07 88.0818 112.685 91.9182 64.5049
Tx-D-R-Rx 
14.7485 -18.758 5.3
25.0262 2.79436 4.50029
-16.2073 34.7432 2.75325
-2.92738 2.97377 1.6
19 1 -106.721 125.627 1.02418e-07 76.6352 -77.7933 92.2645 147.963
Tx-D-Rx 
14.7485 -18.758 5.3
-0.257514 -9.36787 4.6
-2.92738 2.97377 1.6
20 4 -107.487 79.9227 3.36174e-07 87.8954 109.762 92.1046 104.661
Tx-F-X-D-R-Rx 
14.7485 -18.758 5.3
7.4934 8.97372 4.24658
5.79518 15.465 4
3.84407 22.9228 3.7167
-14.7442 35.8642 2.88435
-2.92738 2.97377 1.6
21 1 -107.514 -163.836 9.55475e-08 82.5759 -42.7641 97.4241 118.199
Tx-D-Rx 
14.7485 -18.758 5.3
9.02201 -8.07758 3.72088
-2.92738 2.97377 1.6
22 1 -107.913 127.645 1.83977e-07 86.1522 -11.4856 93.8478 44.6139
Tx-D-Rx 
14.7485 -18.758 5.3
29.9948 -3.71572 3.8595
-2.92738 2.97377 1.6
23 2 -107.919 47.3532 1.6011e-07 90.53 -46.3761 112.077 -82.4158
Tx-R-DS-Rx 
14.7485 -18.758 5.3
14.9102 -19.9723 4.80315
22.7105 -23.9262 1.25624
-2.92738 2.97377 1.6
24 3 -108.021 13.2112 1.84235e-07 80.4319 -25.396 81.3512 19.6691
Tx-F-X-DS-Rx 
14.7485 -18.758 5.3
17.0762 -17.9259 5.676
20.1853 -16.8146 6.17822
30.7785 -13.0281 7.88938
-2.92738 2.97377 1.6
25 2 -108.11 150.588 3.68827e-07 88.0818 112.709 91.9182 64.4184
Tx-D-R-Rx 
14.7485 -18.758 5.3
25.0396 2.73903 4.50177
-16.2189 34.7343 2.75312
-2.92738 2.97377 1.6
10 25
-86.9811 1.56083e-07 1.00569e-07
1 1 -81.3818 24.4336 9.05502e-08 82.1637 -62.3288 97.8363 118.237
Tx-D-Rx 
14.7485 -18.758 5.3
8.98706 -8.02947 3.62402
2.15744 4.99493 1.6
2 1 -82.6656 88.6825 1.69243e-07 85.8167 -17.3755 94.1833 44.6139
Tx-D-Rx 
14.7485 -18.758 5.3
29.9948 -3.71572 3.73345
2.15744 4.99493 1.6
3 1 -84.3952 -105.408 1.69243e-07 85.8167 -17.4394 94.1833 44.5268
Tx-D-Rx 
14.7485 -18.758 5.3
30.0038 -3.75261 3.73488
2.15744 4.99493 1.6
4 1 -89.4462 -144.466 9.55713e-08 82.0086 -63.2436 80.2828 -134.721
Tx-DS-Rx 
14.7485 -18.758 5.3
14.3408 -19.1697 5.39922
2.15744 4.99493 1.6
5 1 -92.6204 104.088 9.05626e-08 82.1648 -61.165 97.8352 116.829
Tx-D-Rx 
14.7485 -18.758 5.3
9.25914 -7.90434 3.62629
2.15744 4.99493 1.6
6 5 -95.1824 -176.055 2.84877e-07 87.5162 -36.4824 92.4838 -79.0903
Tx-R-F-X-R-R-Rx 
14.7485 -18.758 5.3
15.0095 -20.1123 5.24017
19.5014 -22.7273 5.0147
20.5703 -23.3495 4.96105
38.9861 -34.0702 4.0367
35.0724 -19.3452 3.37578
2.15744 4.99493 1.6
7 4 -96.612 -152.521 5.02579e-07 88.5924 79.0362 91.4076 75.2707
Tx-F-X-R-R-Rx 
14.7485 -18.758 5.3
24.2644 17.439 4.38033
24.8189 19.5485 4.32673
34.104 54.8677 3.42937
12.1257 56.4509 2.88791
2.15744 4.99493 1.6
8 4 -96.6161 -152.303 2.83323e-07 87.5025 -37.1842 92.4975 -30.9076
Tx-F-X-R-R-Rx 
14.7485 -18.758 5.3
19.0565 -21.337 5.081
22.0649 -23.1381 4.92807
39.5751 -33.6209 4.03793
35.9554 -20.6445 3.45033
2.15744 4.99493 1.6
9 2 -97.4755 15.0185 1.72994e-07 85.9076 -17.3755 94.0924 -153.443
Tx-R-D-Rx 
14.7485 -18.758 5.3
14.2319 -19.0162 5.25868
29.9948 -3.71572 3.68694
2.15744 4.99493 1.6
10 2 -98.1485 158.681 6.51107e-07 88.9135 -59.8061 91.0865 -50.9892
Tx-R-R-Rx 
14.7485 -18.758 5.3
67.6748 -84.0912 3.70542
24.7834 -33.8899 2.45319
2.15744 4.99493 1.6
11 1 -98.471 -62.4101 1.13538e-07 83.7575 -112.318 96.2425 145.334
Tx-D-Rx 
14.7485 -18.758 5.3
-2.65311 -6.72384 2.98567
2.15744 4.99493 1.6
12 2 -98.8946 165.917 1.72996e-07 85.9076 -17.4394 94.0924 -153.36
Tx-R-D-Rx 
14.7485 -18.758 5.3
14.2324 -19.0169 5.25869
30.0038 -3.75261 3.68833
2.15744 4.99493 1.6
13 3 -98.9687 47.9905 6.51361e-07 88.914 -59.4717 91.086 -58.6412
Tx-R-R-R-Rx 
14.7485 -18.758 5.3
19.0134 -25.7564 5.14463
67.1767 -84.5057 3.70448
26.59 -36.4366 2.51183
2.15744 4.99493 1.6
14 5 -99.7421 132.574 5.05505e-07 88.6005 78.7591 91.3995 175.71
Tx-R-F-X-R-R-Rx 
14.7485 -18.758 5.3
14.0094 -18.7025 5.28189
23.7902 17.7838 4.35906
24.1891 19.2718 4.32142
33.8329 55.2468 3.41152
12.4306 56.6845 2.88748
2.15744 4.99493 1.6
15 1 -100.042 113.497 2.03259e-07 86.5177 83.7383 93.4823 104.359
Tx-D-Rx 
14.7485 -18.758 5.3
4.11074 22.7968 2.68978
2.15744 4.99493 1.6
16 4 -100.687 -117.188 3.32199e-07 87.8702 129.779 92.1298 124.854
Tx-F-X-R-D-Rx 
14.7485 -18.758 5.3
-1.6638 4.80891 4.23196
-4.27537 8.55894 4.06201
-21.2645 32.9541 2.95643
-0.679018 8.40189 1.76487
2.15744 4.99493 1.6
17 1 -100.832 -170.461 1.17316e-07 83.9592 133.39 96.0408 119.96
Tx-D-Rx 
14.7485 -18.758 5.3
-0.6623 7.97774 2.03437
2.15744 4.99493 1.6
18 1 -101.623 -49.161 1.13546e-07 83.7579 -112.217 96.2421 145.403
Tx-D-Rx 
14.7485 -18.758 5.3
-2.64414 -6.76074 2.98894
2.15744 4.99493 1.6
19 2 -102.468 -85.2872 7.50807e-07 89.0578 158.972 90.9422 143.59
Tx-R-R-Rx 
14.7485 -18.758 5.3
-83.21 53.4892 3.29825
-75.1781 34.7253 2.96258
2.15744 4.99493 1.6
20 1 -103.062 14.831 1.41964e-07 85.011 -152.679 94.989 142.898
Tx-D-Rx 
14.7485 -18.758 5.3
-9.02106 -0.77998 2.69836
2.15744 4.99493 1.6
21 1 -103.697 79.5456 1.52509e-07 91.3053 -56.9284 116.426 -41.5225
Tx-DS-Rx 
14.7485 -18.758 5.3
21.542 -24.7731 0.790558
2.15744 4.99493 1.6
22 2 -103.873 -26.1176 2.36265e-07 87.0047 14.9513 92.9953 104.241
Tx-D-R-Rx 
14.7485 -18.758 5.3
4.19705 22.8164 3.05562
12.4349 7.7394 2.15662
2.15744 4.99493 1.6
23 1 -104.079 -121.066 1.56734e-07 85.4822 -5.63047 94.5178 64.4184
Tx-D-Rx 
14.7485 -18.758 5.3
25.0396 2.73903 3.41681
2.15744 4.99493 1.6
24 6 -104.63 -30.0862 2.84877e-07 87.5162 -36.3302 92.4838 -78.9748
Tx-R-F-X-R-R-D-Rx 
14.7485 -18.758 5.3
15.0134 -20.1178 5.2399
19.515 -22.7506 5.01369
20.5244 -23.3409 4.96296
38.9357 -34.1087 4.03776
34.9196 -19.1204 3.36466
31.8033 -16.8062 3.19628
2.15744 4.99493 1.6
25 1 -104.922 1.14738 1.32054e-07 84.6355 58.8749 95.3645 105.716
Tx-D-Rx 
14.7485 -18.758 5.3
6.18677 11.6678 2.33198
2.15744 4.99493 1.6
11 25
-72.0529 1.00152e-07 4.39757e-08
1 0 -69.6975 81.2297 9.35146e-08 82.4136 -73.4649 97.5864 106.535
Tx-Rx 
14.7485 -18.758 5.3
6.84207 7.87378 1.6
2 1 -86.1968 -117.409 9.99426e-08 82.3975 -74.3826 83.9097 -119.06
Tx-DS-Rx 
14.7485 -18.758 5.3
14.4411 -19.3111 5.36752
6.84207 7.87378 1.6
3 3 -90.906 169.724 3.244e-07 87.8189 133.319 92.1811 121.597
Tx-F-X-R-Rx 
14.7485 -18.758 5.3
0.135797 4.99752 4.23781
-3.13571 10.3159 4
-17.5356 33.7255 2.95327
6.84207 7.87378 1.6
4 4 -93.4843 -114.558 3.56435e-07 88.015 -1.93813 91.985 119.375
Tx-F-X-R-R-Rx 
14.7485 -18.758 5.3
1.10442 5.48105 4.33598
-2.26301 11.4634 4.09806
-15.6203 35.1929 3.1543
12.4117 7.68531 1.79314
6.84207 7.87378 1.6
5 1 -95.5057 -161.924 1.28599e-07 84.4909 178.412 95.5091 119.766
Tx-D-Rx 
14.7485 -18.758 5.3
-0.600404 8.08007 2.31809
6.84207 7.87378 1.6
6 4 -97.6226 -52.6498 4.90366e-07 88.5573 80.6165 91.4427 76.851
Tx-F-X-R-R-Rx 
14.7485 -18.758 5.3
23.4335 18.4196 4.33848
24.1543 21.5053 4.25867
32.4788 57.1398 3.33706
15.2673 58.8579 2.90144
6.84207 7.87378 1.6
7 4 -98.22 -22.923 3.244e-07 87.8189 133.378 92.1811 121.641
Tx-F-X-D-R-Rx 
14.7485 -18.758 5.3
0.11532 4.98964 4.23765
-3.15819 10.3021 4
-14.3198 28.4158 3.18969
-17.5647 33.7032 2.95341
6.84207 7.87378 1.6
8 1 -98.3057 -10.3292 1.18955e-07 84.0428 99.7993 95.9572 105.716
Tx-D-Rx 
14.7485 -18.758 5.3
6.18677 11.6678 2.00177
6.84207 7.87378 1.6
9 1 -98.6269 56.5994 9.46539e-08 82.5055 -81.2905 97.4945 116.829
Tx-D-Rx 
14.7485 -18.758 5.3
9.25914 -7.90434 3.69991
6.84207 7.87378 1.6
10 4 -98.902 97.7521 3.2448e-07 87.8195 132.839 92.1805 118.232
Tx-D-F-X-R-Rx 
14.7485 -18.758 5.3
9.00137 -8.05422 4.83742
0.685321 5.21435 4.24118
-2.67854 10.5815 4
-17.2981 33.9075 2.95182
6.84207 7.87378 1.6
11 1 -99.3712 163.048 1.29285e-07 84.5203 -122.952 95.4797 145.403
Tx-D-Rx 
14.7485 -18.758 5.3
-2.64414 -6.76074 3.27306
6.84207 7.87378 1.6
12 4 -101.084 -73.9046 3.2448e-07 87.8195 132.838 92.1805 118.237
Tx-D-F-X-R-Rx 
14.7485 -18.758 5.3
8.98706 -8.02947 4.83633
0.68602 5.2148 4.24118
-2.6779 10.5819 4
-17.2977 33.9078 2.95182
6.84207 7.87378 1.6
13 4 -101.928 -12.5896 2.7512e-07 87.2707 -42.4674 92.4848 -36.148
Tx-F-X-R-D-Rx 
14.7485 -18.758 5.3
19.1028 -21.9388 5.066
21.1942 -23.4665 4.9536
37.3835 -35.2928 4.08357
28.5058 -11.9547 3
6.84207 7.87378 1.6
14 1 -102.034 -176.405 1.29293e-07 84.5206 -123.042 95.4794 145.334
Tx-D-Rx 
14.7485 -18.758 5.3
-2.65311 -6.72384 3.27046
6.84207 7.87378 1.6
15 1 -102.201 -123.449 1.28605e-07 84.4912 179.206 95.5088 119.96
Tx-D-Rx 
14.7485 -18.758 5.3
-0.6623 7.97774 2.32382
6.84207 7.87378 1.6
16 4 -103.639 14.4623 9.17626e-07 89.2291 -1.21565 90.7709 -51.0855
Tx-R-R-R-R-Rx 
14.7485 -18.758 5.3
67.5661 -84.1817 4.16863
26.3785 -36.1384 3.31715
-15.1677 35.5397 2.2024
12.4415 7.75496 1.67536
6.84207 7.87378 1.6
17 5 -103.66 -99.4588 4.93224e-07 88.5657 80.3233 91.4343 174.146
Tx-R-F-X-R-R-Rx 
14.7485 -18.758 5.3
13.9939 -18.6806 5.28101
22.6867 17.6893 4.3447
23.757 22.1674 4.22941
32.2068 57.5201 3.31929
15.5759 59.0944 2.90101
6.84207 7.87378 1.6
18 1 -103.853 -170.613 1.53445e-07 91.2975 -65.7419 116.428 -41.4538
Tx-DS-Rx 
14.7485 -18.758 5.3
21.551 -24.7665 0.78911
6.84207 7.87378 1.6
19 2 -104.079 -48.0339 4.83883e-07 88.538 -41.1256 91.462 33.514
Tx-R-D-Rx 
14.7485 -18.758 5.3
69.3486 17.4003 3.6286
29.4387 -11.8563 2.36563
6.84207 7.87378 1.6
20 3 -104.58 -161.066 1.53601e-07 90.6474 -62.893 113.064 -30.9405
Tx-F-X-DS-Rx 
14.7485 -18.758 5.3
19.0568 -21.3406 3.16116
19.3814 -21.5352 3
23.0091 -23.7098 1.19906
6.84207 7.87378 1.6
21 3 -104.734 -158.722 3.16186e-07 87.7622 49.4818 92.2378 -70.9767
Tx-R-R-R-Rx 
14.7485 -18.758 5.3
15.4102 -20.6771 5.22068
35.6131 -36.6434 4.21445
13.4413 15.5955 1.99691
6.84207 7.87378 1.6
22 7 -105.048 105.047 9.17871e-07 89.2293 -0.978341 90.7707 -58.4477
Tx-R-R-R-F-X-R-R-Rx 
14.7485 -18.758 5.3
19.255 -26.0969 5.18415
66.9582 -84.6874 4.16781
29.8755 -41.068 3.39767
17.3767 -19.7086 3.06477
17.1673 -19.3508 3.0592
-15.0194 35.6534 2.20192
12.4514 7.77799 1.67547
6.84207 7.87378 1.6
23 1 -105.786 24.6505 1.03177e-07 83.1277 -46.6861 96.8723 82.8495
Tx-D-Rx 
14.7485 -18.758 5.3
16.7686 -2.65492 3.344
6.84207 7.87378 1.6
24 2 -106.11 64.7071 1.54674e-07 91.3835 -65.3706 115.696 -75.9783
Tx-R-DS-Rx 
14.7485 -18.758 5.3
15.1286 -20.2802 4.545
21.7426 -24.6277 0.736506
6.84207 7.87378 1.6
25 1 -106.12 -10.4872 3.44787e-07 89.4236 110.966 92.9502 109.062
Tx-DS-Rx 
14.7485 -18.758 5.3
-6.34832 42.2968 1.97088
6.84207 7.87378 1.6
12 25
-78.6 1.47379e-07 1.03525e-07
1 2 -79.7061 -86.2795 1.02653e-07 83.0924 -85.5081 96.9076 156.043
Tx-R-D-Rx 
14.7485 -18.758 5.3
13.7266 -18.3039 5.16454
11.7363 6.10944 2.19711
11.3503 11.0231 1.6
2 1 -88.4427 -3.93111 1.00787e-07 82.9639 -85.5081 97.0361 96.9065
Tx-D-Rx 
14.7485 -18.758 5.3
11.7363 6.10944 2.20833
11.3503 11.0231 1.6
3 1 -91.3187 83.2898 1.00817e-07 79.3038 -84.4686 96.3376 96.6945
Tx-D-Rx 
14.7485 -18.758 5.3
11.8096 6.28042 2.5
11.3503 11.0231 1.6
4 3 -91.5456 79.5435 3.27577e-07 87.8401 136.498 92.1599 118.418
Tx-F-X-R-Rx 
14.7485 -18.758 5.3
1.49744 5.73116 4.24984
-1.65512 11.5574 4
-14.789 35.8299 2.95913
11.3503 11.0231 1.6
5 3 -95.5274 -18.9726 4.30307e-07 88.3559 124.701 91.6441 44.2382
Tx-D-R-R-Rx 
14.7485 -18.758 5.3
30.0984 -3.81088 4.68504
33.2335 -9.55512 4.49721
-8.93364 40.316 2.62268
11.3503 11.0231 1.6
6 1 -97.0441 44.363 1.89546e-07 86.2655 121.218 93.7345 104.234
Tx-D-Rx 
14.7485 -18.758 5.3
4.2019 22.8183 2.50026
11.3503 11.0231 1.6
7 4 -97.6013 -102.335 3.99772e-07 88.2303 77.2981 91.7697 166.412
Tx-R-F-X-D-Rx 
14.7485 -18.758 5.3
13.9039 -18.5538 5.27315
17.733 19.758 4.08354
18.0019 22.4483 4
21.2496 54.9426 2.99102
11.3503 11.0231 1.6
8 4 -97.7055 -103.293 3.99772e-07 88.2303 77.3232 91.7697 166.396
Tx-R-F-X-D-Rx 
14.7485 -18.758 5.3
13.9037 -18.5535 5.27315
17.7274 19.8061 4.08207
17.9908 22.4494 4
21.23 54.9458 2.99099
11.3503 11.0231 1.6
9 4 -98.5823 -120.802 3.27577e-07 87.8401 136.473 92.1599 118.237
Tx-D-F-X-R-Rx 
14.7485 -18.758 5.3
8.98706 -8.02947 4.84072
1.52405 5.74809 4.24976
-1.63004 11.5709 4
-14.776 35.8398 2.95903
11.3503 11.0231 1.6
10 6 -99.457 -175.714 3.50506e-07 87.9815 145.516 92.0185 142.83
Tx-D-F-X-F-X-R-Rx 
14.7485 -18.758 5.3
-9.05333 -0.71102 4.24724
-14.5046 14.8419 3.66638
-14.9167 16.0176 3.62247
-17.1573 22.4101 3.38373
-17.5947 23.6581 3.33712
-20.94 33.2023 2.98067
11.3503 11.0231 1.6
11 2 -99.5622 -138.202 1.88396e-07 86.2426 -68.5312 93.7574 142.898
Tx-D-R-Rx 
14.7485 -18.758 5.3
-9.02106 -0.77998 3.34278
12.5427 7.99108 1.81396
11.3503 11.0231 1.6
12 6 -100.084 0.792966 3.50506e-07 87.9815 145.507 92.0185 142.852
Tx-D-F-X-F-X-R-Rx 
14.7485 -18.758 5.3
-9.03003 -0.743088 4.24857
-14.4919 14.8323 3.66685
-14.9218 16.0584 3.62105
-17.166 22.4582 3.38203
-17.5844 23.6512 3.33747
-20.935 33.2061 2.9806
11.3503 11.0231 1.6
13 1 -101.071 -123.376 1.89546e-07 86.2655 121.196 93.7345 104.227
Tx-D-Rx 
14.7485 -18.758 5.3
4.20671 22.8204 2.50021
11.3503 11.0231 1.6
14 2 -101.13 -59.4906 1.88401e-07 86.2427 -68.6047 93.7573 142.965
Tx-D-R-Rx 
14.7485 -18.758 5.3
-9.02703 -0.819203 3.34407
12.5404 7.98561 1.81424
11.3503 11.0231 1.6
15 2 -102.007 115.169 2.09818e-07 86.6267 -61.9325 93.3733 104.234
Tx-D-R-Rx 
14.7485 -18.758 5.3
4.2019 22.8183 2.77175
12.7832 8.33583 1.77951
11.3503 11.0231 1.6
16 1 -102.048 -105.09 1.04847e-07 83.2376 -96.2463 96.7624 116.89
Tx-D-Rx 
14.7485 -18.758 5.3
9.2726 -7.95968 3.86435
11.3503 11.0231 1.6
17 4 -102.167 152.681 4.2933e-07 88.3522 88.2062 91.6478 84.9975
Tx-F-X-D-R-Rx 
14.7485 -18.758 5.3
18.0573 19.0428 4.20839
18.4172 23.1548 4.08964
21.2022 54.9717 3.17083
12.7889 56.959 2.92214
11.3503 11.0231 1.6
18 4 -102.419 -152.453 4.34071e-07 88.3702 124.701 91.6298 -153.086
Tx-R-D-R-R-Rx 
14.7485 -18.758 5.3
14.234 -19.0191 5.28358
30.0984 -3.81088 4.65827
33.2335 -9.55512 4.47207
-8.93364 40.316 2.61381
11.3503 11.0231 1.6
19 4 -102.759 -32.9096 4.2933e-07 88.3522 88.2198 91.6478 84.9874
Tx-F-X-D-R-Rx 
14.7485 -18.758 5.3
18.0631 19.0328 4.20866
18.4252 23.161 4.08945
21.2139 54.9557 3.17126
12.7778 56.9505 2.92188
11.3503 11.0231 1.6
20 7 -103.088 129.197 3.80249e-07 88.1394 -41.0244 91.8606 103.276
Tx-F-X-F-X-R-R-R-Rx 
14.7485 -18.758 5.3
8.15488 9.18643 4.3673
6.66774 15.4891 4.15693
5.8924 18.7751 4.04726
5.55831 20.191 4
-0.682008 46.6381 3.11727
8.12763 41.8826 2.79206
13.7888 8.90149 1.705
11.3503 11.0231 1.6
21 4 -104.267 30.1158 3.39418e-07 87.9155 130.154 92.0845 82.8495
Tx-D-F-X-R-Rx 
14.7485 -18.758 5.3
16.7686 -2.65492 4.70929
8.37442 9.43974 4.17344
5.65752 13.3543 4
-11.6243 38.2545 2.89679
11.3503 11.0231 1.6
22 3 -104.503 -167.012 3.97289e-07 88.2192 77.2981 91.7808 84.959
Tx-F-X-D-Rx 
14.7485 -18.758 5.3
18.0795 19.0047 4.12139
18.4226 22.8939 4
21.2496 54.9426 2.99973
11.3503 11.0231 1.6
23 3 -105.223 -3.6312 3.97289e-07 88.2192 77.3232 91.7808 84.9743
Tx-F-X-D-Rx 
14.7485 -18.758 5.3
18.0707 19.0198 4.12095
18.4115 22.895 4
21.23 54.9458 2.99969
11.3503 11.0231 1.6
24 1 -105.347 164.073 3.46037e-07 89.4048 116.376 92.9154 107.396
Tx-DS-Rx 
14.7485 -18.758 5.3
-4.76091 43.513 1.97673
11.3503 11.0231 1.6
25 4 -105.634 -160.26 3.39418e-07 87.9155 130.14 92.0845 82.9207
Tx-D-F-X-R-Rx 
14.7485 -18.758 5.3
16.7552 -2.59958 4.70735
8.38589 9.45298 4.17328
5.67057 13.3633 4
-11.6175 38.2597 2.89678
11.3503 11.0231 1.6
13 25
-85.1905 2.36474e-07 1.02739e-07
1 2 -89.5238 9.42263 2.75737e-07 87.4338 -68.1171 92.5662 -72.0917
Tx-R-R-Rx 
14.7485 -18.758 5.3
15.3339 -20.5696 5.21467
36.059 -36.3032 4.04845
15.698 14.3903 1.6
2 3 -90.7742 -136.64 2.74621e-07 87.4233 -67.3582 92.5767 -37.9631
Tx-F-X-R-Rx 
14.7485 -18.758 5.3
19.2222 -22.2486 5.04465
20.6531 -23.3651 4.96297
36.6537 -35.8495 4.04967
15.698 14.3903 1.6
3 1 -91.3694 -140.49 1.11373e-07 80.4296 -91.1135 95.7464 88.2581
Tx-D-Rx 
14.7485 -18.758 5.3
15.5942 9.05338 2.5
15.698 14.3903 1.6
4 2 -99.6008 -157.119 1.137e-07 80.1296 -92.612 95.5744 163.991
Tx-R-D-Rx 
14.7485 -18.758 5.3
13.8699 -18.5059 5.21079
15.4622 9.22309 2.5
15.698 14.3903 1.6
5 1 -100.986 -146.142 1.11493e-07 83.6425 -85.2591 96.3575 86.9134
Tx-D-Rx 
14.7485 -18.758 5.3
16.2058 8.26711 2.28457
15.698 14.3903 1.6
6 1 -101.056 -167.107 1.3984e-07 80.2626 -89.1813 53.433 -64.3459
Tx-DS-Rx 
14.7485 -18.758 5.3
16.2153 -21.812 7.81315
15.698 14.3903 1.6
7 1 -104.322 -48.3256 3.03592e-07 87.6694 20.5059 92.3306 53.5908
Tx-D-Rx 
14.7485 -18.758 5.3
48.1457 26.5258 3.00995
15.698 14.3903 1.6
8 2 -104.335 -127.454 3.30766e-07 87.8609 -62.3905 92.1391 51.0349
Tx-R-D-Rx 
14.7485 -18.758 5.3
40.8848 13.558 3.7476
29.4248 -11.8562 2.70631
15.698 14.3903 1.6
9 4 -104.758 -71.7744 3.35153e-07 87.8889 131.679 92.1111 104.681
Tx-F-X-D-R-Rx 
14.7485 -18.758 5.3
7.48375 8.97145 4.24335
5.81063 15.3577 4
3.81559 22.9728 3.70982
-8.01225 41.022 2.91437
15.698 14.3903 1.6
10 1 -104.893 -0.521301 1.38381e-07 84.8815 -164.725 95.1185 105.15
Tx-D-Rx 
14.7485 -18.758 5.3
6.4567 11.8664 2.45809
15.698 14.3903 1.6
11 1 -105.198 -99.1497 1.66064e-07 91.1766 -81.4782 116.429 -41.3561
Tx-DS-Rx 
14.7485 -18.758 5.3
21.5638 -24.7572 0.787029
15.698 14.3903 1.6
12 1 -105.645 32.1059 3.03597e-07 87.6694 20.5691 92.3306 53.6293
Tx-D-Rx 
14.7485 -18.758 5.3
48.1224 26.5578 3.0095
15.698 14.3903 1.6
13 3 -105.668 -12.5045 1.99693e-07 84.7798 -39.6618 91.7954 28.589
Tx-F-X-DS-Rx 
14.7485 -18.758 5.3
17.2037 -17.42 5.21235
18.7746 -16.5638 5.15627
39.4457 -5.29877 4.41835
15.698 14.3903 1.6
14 3 -105.77 -107.853 1.64634e-07 90.599 -79.0905 113.058 -30.7488
Tx-F-X-DS-Rx 
14.7485 -18.758 5.3
19.0552 -21.3201 3.16693
19.3922 -21.5206 3
23.0375 -23.6892 1.19454
15.698 14.3903 1.6
15 1 -105.839 50.9572 3.49762e-07 89.0807 119.081 92.6833 104.354
Tx-DS-Rx 
14.7485 -18.758 5.3
-1.77257 45.8026 2.17679
15.698 14.3903 1.6
16 2 -106.08 23.2982 1.13894e-07 83.7771 -85.2591 96.2229 165.634
Tx-R-D-Rx 
14.7485 -18.758 5.3
13.8934 -18.539 5.20375
16.2058 8.26711 2.26996
15.698 14.3903 1.6
17 1 -106.295 98.1274 1.48956e-07 85.2457 -51.7047 94.7543 44.6139
Tx-D-Rx 
14.7485 -18.758 5.3
29.9948 -3.71572 3.51871
15.698 14.3903 1.6
18 3 -107.162 -152.161 2.75193e-07 86.3093 -68.2701 90.3606 -39.7715
Tx-F-X-DS-Rx 
14.7485 -18.758 5.3
19.4863 -22.7014 5.26121
20.1763 -23.2757 5.25556
35.9386 -36.3951 5.1265
15.698 14.3903 1.6
19 2 -107.433 60.721 1.67089e-07 91.2576 -81.1578 115.687 -76.1358
Tx-R-DS-Rx 
14.7485 -18.758 5.3
15.1218 -20.2706 4.55057
21.7652 -24.6113 0.733522
15.698 14.3903 1.6
20 2 -107.446 61.7397 3.30766e-07 87.8609 -62.3966 92.1391 51.0375
Tx-R-D-Rx 
14.7485 -18.758 5.3
40.8832 13.5589 3.74761
29.4213 -11.8563 2.70625
15.698 14.3903 1.6
21 2 -107.933 147.937 3.07211e-07 87.6968 20.5059 92.3032 -162.53
Tx-R-D-Rx 
14.7485 -18.758 5.3
14.1765 -18.938 5.27588
48.1457 26.5258 2.99332
15.698 14.3903 1.6
22 4 -108.295 83.8199 4.08259e-07 88.2671 74.2019 91.7329 72.4702
Tx-F-X-R-D-Rx 
14.7485 -18.758 5.3
26.0567 17.042 4.16415
26.6415 18.8935 4.10541
36.8098 51.0848 3.08406
26.1497 51.3304 2.76146
15.698 14.3903 1.6
23 3 -108.354 140.11 3.87664e-07 81.6624 55.7895 88.1389 70.2963
Tx-F-X-DS-Rx 
14.7485 -18.758 5.3
22.0119 1.52376 6
23.5901 5.93081 6.1521
38.7763 48.3355 7.61565
15.698 14.3903 1.6
24 2 -108.743 103.316 1.66082e-07 90.5184 -79.5358 112.054 -82.7725
Tx-R-DS-Rx 
14.7485 -18.758 5.3
14.9008 -19.9591 4.8095
22.7671 -23.8851 1.24782
15.698 14.3903 1.6
25 1 -108.88 -141.969 1.64382e-07 85.6928 -130.932 94.3072 145.403
Tx-D-Rx 
14.7485 -18.758 5.3
-2.64414 -6.76074 3.70861
15.698 14.3903 1.6
14 25
-72.8628 1.67762e-07 8.00088e-08
1 1 -77.2667 -110.148 1.28033e-07 84.4665 -98.4942 95.5335 169.198
Tx-R-Rx 
14.7485 -18.758 5.3
13.9392 -18.6036 5.22018
19.4589 18.3548 1.6
2 1 -82.2259 -169.371 3.32355e-07 87.8712 142.785 92.1288 112.131
Tx-R-Rx 
14.7485 -18.758 5.3
-9.19478 40.1159 2.93747
19.4589 18.3548 1.6
3 1 -83.2208 162.235 1.25438e-07 84.3517 -97.3521 95.6483 82.9207
Tx-D-Rx 
14.7485 -18.758 5.3
16.7552 -2.59958 3.68962
19.4589 18.3548 1.6
4 1 -86.5147 -47.2115 1.47764e-07 85.2073 -2.14188 94.7927 74.1445
Tx-R-Rx 
14.7485 -18.758 5.3
25.2279 18.1391 2.08404
19.4589 18.3548 1.6
5 2 -86.8554 62.607 1.28064e-07 84.4679 -97.3499 95.5321 170.606
Tx-R-D-Rx 
14.7485 -18.758 5.3
13.9557 -18.6268 5.22217
16.7633 -2.5432 3.64084
19.4589 18.3548 1.6
6 1 -93.4996 -110.112 1.36535e-07 84.8121 -154.847 95.1879 91.6554
Tx-D-Rx 
14.7485 -18.758 5.3
13.7533 15.6757 2.1723
19.4589 18.3548 1.6
7 1 -93.9039 125.245 1.47764e-07 85.2073 -1.99308 94.7927 74.1668
Tx-D-Rx 
14.7485 -18.758 5.3
25.2167 18.1545 2.08306
19.4589 18.3548 1.6
8 1 -93.9588 124.426 1.47764e-07 85.2073 -2.30243 94.7927 74.1203
Tx-D-Rx 
14.7485 -18.758 5.3
25.24 18.1224 2.08511
19.4589 18.3548 1.6
9 2 -94.4504 -108.652 1.28065e-07 84.4679 -97.3521 95.5321 170.612
Tx-R-D-Rx 
14.7485 -18.758 5.3
13.9558 -18.6269 5.22218
16.7552 -2.59958 3.64636
19.4589 18.3548 1.6
10 1 -95.5694 -116.049 1.46648e-07 88.3739 -95.1932 132.796 -66.5153
Tx-DS-Rx 
14.7485 -18.758 5.3
15.8545 -21.3034 2.73045
19.4589 18.3548 1.6
11 1 -95.9978 -167.197 1.96432e-07 86.3965 163.394 93.6035 104.096
Tx-D-Rx 
14.7485 -18.758 5.3
4.29364 22.8775 2.5966
19.4589 18.3548 1.6
12 1 -96.3186 -148.462 1.53563e-07 85.3887 -64.4291 94.6113 44.6773
Tx-D-Rx 
14.7485 -18.758 5.3
30.0008 -3.6765 3.56994
19.4589 18.3548 1.6
13 1 -97.9973 -38.5394 1.53566e-07 85.3888 -64.4813 94.6112 44.6139
Tx-D-Rx 
14.7485 -18.758 5.3
29.9948 -3.71572 3.57254
19.4589 18.3548 1.6
14 1 -98.3166 -34.9855 1.3654e-07 84.8123 -155.459 95.1877 91.5479
Tx-D-Rx 
14.7485 -18.758 5.3
13.8152 15.778 2.16328
19.4589 18.3548 1.6
15 4 -99.5734 -41.5888 3.39216e-07 87.9142 62.2872 92.0858 110.746
Tx-F-X-R-R-Rx 
14.7485 -18.758 5.3
4.26359 8.92199 4.22202
2.73807 12.9493 4.06517
-7.92181 41.0913 2.9692
20.5888 20.5059 1.68849
19.4589 18.3548 1.6
16 1 -99.9268 25.4517 1.96432e-07 86.3965 163.377 93.6035 104.09
Tx-D-Rx 
14.7485 -18.758 5.3
4.29741 22.8812 2.59644
19.4589 18.3548 1.6
17 2 -101.012 -68.0408 2.12345e-07 86.6669 -117.209 93.3331 121.948
Tx-D-R-Rx 
14.7485 -18.758 5.3
-3.72836 10.8715 3.26638
14.9281 9.54231 2.17709
19.4589 18.3548 1.6
18 2 -101.7 92.0104 2.12346e-07 86.6669 -117.244 93.3331 121.977
Tx-D-R-Rx 
14.7485 -18.758 5.3
-3.73871 10.8546 3.2669
14.9184 9.53688 2.17763
19.4589 18.3548 1.6
19 2 -102.574 -18.5166 1.38682e-07 84.8926 -154.847 95.1074 160.599
Tx-R-D-Rx 
14.7485 -18.758 5.3
13.8157 -18.4295 5.21161
13.7533 15.6757 2.16337
19.4589 18.3548 1.6
20 1 -104.481 126.2 2.87535e-07 87.5391 15.9702 92.4609 53.6293
Tx-D-Rx 
14.7485 -18.758 5.3
48.1224 26.5578 2.88131
19.4589 18.3548 1.6
21 1 -104.987 -81.7405 3.46332e-07 89.247 129.197 92.8011 105.064
Tx-DS-Rx 
14.7485 -18.758 5.3
-2.48137 45.2595 2.05629
19.4589 18.3548 1.6
22 3 -105.669 58.6827 2.00104e-07 84.796 -49.7276 91.7879 28.5974
Tx-F-X-DS-Rx 
14.7485 -18.758 5.3
17.2052 -17.4187 5.21266
18.7704 -16.5654 5.15702
39.4794 -5.27565 4.42078
19.4589 18.3548 1.6
23 1 -105.923 -166.384 2.8754e-07 87.5392 15.8986 92.4608 53.5908
Tx-D-Rx 
14.7485 -18.758 5.3
48.1457 26.5258 2.88187
19.4589 18.3548 1.6
24 1 -106.337 -175.468 1.77764e-07 91.1534 -86.7529 116.445 -38.8923
Tx-DS-Rx 
14.7485 -18.758 5.3
21.8913 -24.5199 0.735384
19.4589 18.3548 1.6
25 3 -106.397 126.97 3.64359e-07 77.7653 52.0877 86.8686 68.0451
Tx-F-X-DS-Rx 
14.7485 -18.758 5.3
22.5047 0.483052 6.43494
24.931 6.50177 6.78996
40.7067 45.6367 9.09836
19.4589 18.3548 1.6
15 25
-72.5129 1.6931e-07 6.52118e-08
1 1 -76.965 -87.3758 1.46138e-07 85.1538 -99.1525 94.8462 169.857
Tx-R-Rx 
14.7485 -18.758 5.3
13.947 -18.6146 5.23097
20.7591 23.6664 1.6
2 2 -89.1885 -132.684 1.46146e-07 85.1541 -98.6683 94.8459 170.606
Tx-R-D-Rx 
14.7485 -18.758 5.3
13.9557 -18.6268 5.23187
16.7633 -2.5432 3.8477
20.7591 23.6664 1.6
3 3 -89.3607 -86.343 3.25527e-07 87.8265 145.734 92.1735 109.181
Tx-F-X-R-Rx 
14.7485 -18.758 5.3
5.18333 8.73804 4.1951
3.49434 13.5932 4
-6.4609 42.2106 2.85004
20.7591 23.6664 1.6
4 1 -91.2502 -33.7854 1.43544e-07 85.066 -93.2366 94.934 81.5555
Tx-D-Rx 
14.7485 -18.758 5.3
20.582 20.5349 1.87076
20.7591 23.6664 1.6
5 2 -92.8177 -160.93 3.10639e-07 93.6335 16.0784 93.6335 55.0721
Tx-R-R-Rx 
14.7485 -18.758 5.3
50.326 32.1883 1.35401
37.4036 28.4638 0.5
20.7591 23.6664 1.6
6 3 -94.2588 49.8986 3.1026e-07 87.7195 16.0784 92.2805 55.0721
Tx-R-F-X-Rx 
14.7485 -18.758 5.3
50.326 32.1883 2.82539
48.8804 31.7717 2.76548
45.4679 30.7881 2.62405
20.7591 23.6664 1.6
7 2 -94.4653 -138.207 1.46198e-07 85.1558 -93.2366 94.8442 170.314
Tx-R-D-Rx 
14.7485 -18.758 5.3
13.9523 -18.6221 5.23155
20.582 20.5349 1.86581
20.7591 23.6664 1.6
8 1 -96.8473 -112.718 1.62513e-07 88.8902 -96.5412 139.575 -68.3476
Tx-DS-Rx 
14.7485 -18.758 5.3
15.6377 -20.9978 2.4709
20.7591 23.6664 1.6
9 1 -97.9594 -49.5113 1.98603e-07 86.436 -177.387 93.564 104.038
Tx-D-Rx 
14.7485 -18.758 5.3
4.32838 22.9166 2.62443
20.7591 23.6664 1.6
10 1 -100.379 -75.0329 1.51262e-07 85.3184 -78.4455 94.6816 64.5049
Tx-D-Rx 
14.7485 -18.758 5.3
25.0262 2.79436 3.34461
20.7591 23.6664 1.6
11 1 -101.37 142.395 3.40814e-07 80.199 46.4758 88.8364 67.5701
Tx-DS-Rx 
14.7485 -18.758 5.3
41.1015 45.0847 6.70281
20.7591 23.6664 1.6
12 2 -102.647 -9.38984 3.10639e-07 93.4074 16.0297 93.6896 55.06
Tx-R-D-Rx 
14.7485 -18.758 5.3
50.3341 32.177 1.29321
38.5153 28.7679 0.5
20.7591 23.6664 1.6
13 1 -102.71 51.8927 1.51264e-07 85.3184 -78.3937 94.6816 64.5455
Tx-D-Rx 
14.7485 -18.758 5.3
25.0343 2.85074 3.34019
20.7591 23.6664 1.6
14 3 -102.736 134.703 3.14219e-07 93.5921 16.3132 93.5921 -164.133
Tx-R-R-R-Rx 
14.7485 -18.758 5.3
14.1662 -18.9235 5.262
50.2483 32.297 1.32887
37.5763 28.5883 0.5
20.7591 23.6664 1.6
15 3 -103.005 0.131538 4.46578e-07 88.4158 98.8747 91.5842 66.0811
Tx-D-R-R-Rx 
14.7485 -18.758 5.3
39.6824 37.4586 3.59921
38.7004 48.4416 3.29425
15.2645 58.8557 2.58499
20.7591 23.6664 1.6
16 4 -103.17 -110.009 3.13845e-07 87.7455 16.3132 92.2545 -164.133
Tx-R-R-F-X-Rx 
14.7485 -18.758 5.3
14.1662 -18.9235 5.27617
50.2483 32.297 2.80963
48.8966 31.9014 2.75418
45.4504 30.8928 2.61282
20.7591 23.6664 1.6
17 3 -103.593 175.27 4.46578e-07 88.4158 98.8668 91.5842 66.0717
Tx-D-R-R-Rx 
14.7485 -18.758 5.3
39.676 37.4192 3.60028
38.6908 48.455 3.29385
15.2689 58.8591 2.58506
20.7591 23.6664 1.6
18 5 -104.081 -118.35 4.49945e-07 88.4277 100.751 91.5723 64.8494
Tx-F-X-D-R-R-Rx 
14.7485 -18.758 5.3
38.0522 30.8759 3.79491
38.9407 32.7683 3.73752
41.8753 39.0186 3.54799
41.1384 45.0332 3.38166
14.2285 58.062 2.56099
20.7591 23.6664 1.6
19 3 -104.212 -82.3216 3.38841e-07 88.4997 134.233 92.4601 103.797
Tx-F-X-DS-Rx 
14.7485 -18.758 5.3
7.91416 9.07273 4.06879
7.5323 10.6277 4
-1.21114 46.2327 2.42486
20.7591 23.6664 1.6
20 1 -104.238 -164.55 1.52175e-07 85.3465 -50.9044 94.6535 74.1947
Tx-D-Rx 
14.7485 -18.758 5.3
25.2078 18.1914 2.17423
20.7591 23.6664 1.6
21 5 -104.518 57.7478 4.49945e-07 88.4277 100.76 91.5723 64.8592
Tx-F-X-D-R-R-Rx 
14.7485 -18.758 5.3
38.0579 30.9102 3.79399
38.927 32.7621 3.73784
41.8816 39.058 3.54694
41.1507 45.0159 3.38217
14.2236 58.0583 2.56092
20.7591 23.6664 1.6
22 2 -104.593 -145.819 1.54598e-07 85.4196 -78.4455 94.5804 -172.52
Tx-R-D-Rx 
14.7485 -18.758 5.3
14.1084 -18.842 5.24828
25.0262 2.79436 3.30672
20.7591 23.6664 1.6
23 1 -105.151 81.3774 1.62383e-07 106.159 0.977588 96.4868 76.2358
Tx-DS-Rx 
14.7485 -18.758 5.3
25.1592 23.7414 0.324857
20.7591 23.6664 1.6
24 2 -105.454 -23.9722 2.30141e-07 86.9249 -115.092 93.0751 121.977
Tx-D-R-Rx 
14.7485 -18.758 5.3
-3.73871 10.8546 3.42458
13.8654 8.94454 2.4733
20.7591 23.6664 1.6
25 2 -105.855 9.95446 1.54599e-07 85.4196 -78.3937 94.5804 -172.562
Tx-R-D-Rx 
14.7485 -18.758 5.3
14.108 -18.8416 5.24826
25.0343 2.85074 3.30241
20.7591 23.6664 1.6
16 25
-76.3455 1.79544e-07 6.38275e-08
1 0 -74.4876 96.586 1.59563e-07 85.5624 -101.33 94.4376 78.6695
Tx-Rx 
14.7485 -18.758 5.3
24.1155 27.9899 1.6
2 3 -90.2633 27.3329 3.27168e-07 87.8374 148.931 92.1626 105.985
Tx-F-X-R-Rx 
14.7485 -18.758 5.3
6.84776 8.82181 4.21663
5.26795 14.3366 4
-3.39087 44.5627 2.81268
24.1155 27.9899 1.6
3 1 -90.7773 -140.234 1.62347e-07 85.6387 -102.255 94.3613 172.959
Tx-R-Rx 
14.7485 -18.758 5.3
13.9815 -18.6632 5.24106
24.1155 27.9899 1.6
4 4 -90.8924 -118.486 3.7101e-07 88.0931 136.834 91.9069 44.6139
Tx-D-F-X-R-Rx 
14.7485 -18.758 5.3
29.9948 -3.71572 4.5869
7.83324 37.8214 3.0194
7.5589 38.3356 3
2.02332 48.7108 2.60847
24.1155 27.9899 1.6
5 4 -92.0072 55.0413 3.7101e-07 88.0931 136.819 91.9069 44.6773
Tx-D-F-X-R-Rx 
14.7485 -18.758 5.3
30.0008 -3.6765 4.58584
7.84782 37.818 3.01973
7.56872 38.3408 3
2.02976 48.7158 2.60842
24.1155 27.9899 1.6
6 5 -95.9676 -136.73 2.95711e-07 87.6072 13.9912 92.3928 57.1592
Tx-F-X-R-F-X-Rx 
14.7485 -18.758 5.3
46.1065 29.8243 2.88377
48.4115 33.3954 2.70617
48.9101 34.1678 2.66775
46.1895 33.4899 2.55059
45.3216 33.2737 2.51322
24.1155 27.9899 1.6
7 1 -96.7404 32.8295 1.59693e-07 85.566 -102.996 94.434 81.8864
Tx-D-Rx 
14.7485 -18.758 5.3
17.0461 -2.6415 4.03766
24.1155 27.9899 1.6
8 3 -96.7472 94.9223 4.99473e-07 88.5836 141.82 91.4164 -70.8786
Tx-R-R-R-Rx 
14.7485 -18.758 5.3
15.4174 -20.6872 5.24951
35.5741 -36.6732 4.61342
-0.133568 47.0583 2.36274
24.1155 27.9899 1.6
9 1 -97.0612 -64.9514 1.83059e-07 88.3543 -99.1405 124.903 -64.8209
Tx-DS-Rx 
14.7485 -18.758 5.3
16.1233 -21.6823 3.04549
24.1155 27.9899 1.6
10 2 -98.1628 89.9545 1.62372e-07 85.6393 -102.996 94.3607 171.597
Tx-R-D-Rx 
14.7485 -18.758 5.3
13.9668 -18.6425 5.23975
17.0461 -2.6415 3.9972
24.1155 27.9899 1.6
11 4 -99.1964 136.173 3.45054e-07 87.9495 156.833 92.0505 148.172
Tx-D-F-X-R-Rx 
14.7485 -18.758 5.3
-0.173668 -9.49564 4.6712
-2.16077 4.49706 4.1652
-2.80953 9.06547 4
-7.41289 41.4812 2.8278
24.1155 27.9899 1.6
12 1 -99.7553 132.475 3.21566e-07 80.7319 44.862 89.8099 67.4737
Tx-DS-Rx 
14.7485 -18.758 5.3
41.1811 44.9734 5.52891
24.1155 27.9899 1.6
13 4 -102.86 -11.8073 4.36197e-07 88.3781 109.626 91.6219 62.346
Tx-F-X-D-R-Rx 
14.7485 -18.758 5.3
39.4631 28.4084 3.79226
42.0996 33.4398 3.63142
43.7751 36.6375 3.52921
13.5717 57.5587 2.48887
24.1155 27.9899 1.6
14 5 -103.399 7.03809 3.74769e-07 88.1122 136.819 91.8878 -153.504
Tx-R-D-F-X-R-Rx 
14.7485 -18.758 5.3
14.2315 -19.0157 5.28096
30.0008 -3.6765 4.55586
7.84782 37.818 3.00548
7.76958 37.9646 3
2.02976 48.7158 2.5983
24.1155 27.9899 1.6
15 1 -103.536 -115.83 1.6006e-07 85.5762 -111.374 94.4238 80.7078
Tx-D-Rx 
14.7485 -18.758 5.3
21.1628 20.4454 2.22677
24.1155 27.9899 1.6
16 4 -103.767 158.613 4.36197e-07 88.3781 109.603 91.6219 62.3701
Tx-F-X-D-R-Rx 
14.7485 -18.758 5.3
39.4459 28.4238 3.7921
42.0715 33.4398 3.63179
43.7656 36.6762 3.52836
13.5818 57.5665 2.48898
24.1155 27.9899 1.6
17 4 -103.833 -94.7115 4.99473e-07 88.5836 141.783 91.4164 -70.9067
Tx-R-R-D-R-Rx 
14.7485 -18.758 5.3
15.4153 -20.6843 5.2496
35.5852 -36.6647 4.61334
13.2606 15.7561 3.20457
-0.117385 47.0707 2.36261
24.1155 27.9899 1.6
18 4 -103.981 -105.527 5.55509e-07 88.7265 -69.7204 91.2735 116.362
Tx-F-X-R-R-Rx 
14.7485 -18.758 5.3
2.15352 6.65722 4.66945
-0.294105 11.5962 4.54692
-12.9875 37.2101 3.91144
37.028 -6.95528 2.42816
24.1155 27.9899 1.6
19 5 -104.384 171.688 3.7477e-07 88.1122 136.834 91.8878 -153.443
Tx-R-D-F-X-R-Rx 
14.7485 -18.758 5.3
14.2319 -19.0162 5.28096
29.9948 -3.71572 4.55691
7.83324 37.8214 3.00515
7.75969 37.9592 3
2.02332 48.7108 2.59834
24.1155 27.9899 1.6
20 3 -104.447 1.88377 3.39719e-07 88.2414 139.812 92.3266 101.893
Tx-F-X-DS-Rx 
14.7485 -18.758 5.3
8.72457 9.84376 4.11243
8.15425 12.5517 4
0.744907 47.7314 2.53931
24.1155 27.9899 1.6
21 2 -104.645 -125.403 2.96112e-07 93.2879 13.8902 93.9566 57.1314
Tx-R-D-Rx 
14.7485 -18.758 5.3
48.9293 34.141 0.94383
42.7036 32.5866 0.5
24.1155 27.9899 1.6
22 1 -104.818 -54.0992 2.1185e-07 86.6591 -165.668 93.3409 104.012
Tx-D-Rx 
14.7485 -18.758 5.3
4.34307 22.9382 2.79131
24.1155 27.9899 1.6
23 1 -105.209 167.658 1.61504e-07 85.6159 -83.6393 94.3841 74.1947
Tx-D-Rx 
14.7485 -18.758 5.3
25.2078 18.1914 2.35588
24.1155 27.9899 1.6
24 4 -106.31 156.9 3.45061e-07 87.9496 156.955 92.0504 147.598
Tx-D-F-X-R-Rx 
14.7485 -18.758 5.3
-0.407801 -9.13886 4.65732
-2.27846 4.23816 4.17374
-2.95055 9.04427 4
-7.47942 41.4302 2.82925
24.1155 27.9899 1.6
25 3 -106.562 -112.896 3.35663e-07 87.8922 -130.147 92.1078 -71.2583
Tx-R-R-D-Rx 
14.7485 -18.758 5.3
15.39 -20.6486 5.22652
35.7253 -36.5578 4.27623
13.8152 15.778 2.18799
24.1155 27.9899 1.6
17 25
-72.8159 1.86531e-07 4.96074e-08
1 0 -75.3144 -141.146 1.74492e-07 85.9428 -104.974 94.0572 75.0257
Tx-Rx 
14.7485 -18.758 5.3
28.2268 31.6341 1.6
2 1 -81.2846 173.092 1.77433e-07 86.0101 -105.761 93.9899 176.465
Tx-R-Rx 
14.7485 -18.758 5.3
14.0167 -18.7128 5.24886
28.2268 31.6341 1.6
3 1 -89.8987 -70.3331 1.75165e-07 96.7581 -104.942 96.387 75.0186
Tx-D-Rx 
14.7485 -18.758 5.3
25.8334 22.6653 0.5
28.2268 31.6341 1.6
4 3 -90.6281 4.6104 2.79604e-07 87.4693 12.251 92.5307 58.8994
Tx-F-X-R-Rx 
14.7485 -18.758 5.3
45.3216 31.9226 2.684
46.2778 33.5076 2.60219
47.6982 35.8622 2.48065
28.2268 31.6341 1.6
5 4 -95.1439 -76.2703 2.83096e-07 87.5005 12.5593 92.4995 -167.887
Tx-R-F-X-R-Rx 
14.7485 -18.758 5.3
14.1412 -18.8883 5.27289
45.3216 32.1758 2.66116
46.115 33.475 2.5947
47.6304 35.9569 2.46777
28.2268 31.6341 1.6
6 3 -96.2548 -47.3674 5.03063e-07 88.5937 143.875 91.4063 -72.9341
Tx-R-R-R-Rx 
14.7485 -18.758 5.3
15.2823 -20.4968 5.25535
36.3991 -36.0438 4.61161
3.39254 49.7599 2.35476
28.2268 31.6341 1.6
7 2 -96.5559 100.567 1.78096e-07 96.8412 -105.71 96.243 176.476
Tx-R-D-Rx 
14.7485 -18.758 5.3
14.0168 -18.7129 5.2198
25.7442 22.8078 0.5
28.2268 31.6341 1.6
8 1 -97.1209 20.6144 1.74543e-07 85.9439 -102.669 94.0561 74.2021
Tx-D-Rx 
14.7485 -18.758 5.3
25.2137 18.2306 2.57417
28.2268 31.6341 1.6
9 1 -97.775 -70.0708 1.95958e-07 88.7027 -103.031 130.102 -65.8848
Tx-DS-Rx 
14.7485 -18.758 5.3
15.9451 -21.4312 2.83349
28.2268 31.6341 1.6
10 4 -98.3369 99.9238 5.01881e-07 88.5904 143.462 91.4096 -36.7749
Tx-F-X-R-R-Rx 
14.7485 -18.758 5.3
19.1088 -22.0169 5.16605
20.9994 -23.43 5.10797
37.13 -35.4862 4.61244
3.57554 49.9001 2.35496
28.2268 31.6341 1.6
11 1 -98.8648 -179.955 3.00822e-07 81.1296 45.4628 90.6661 67.3863
Tx-DS-Rx 
14.7485 -18.758 5.3
41.2532 44.8727 4.4986
28.2268 31.6341 1.6
12 2 -100.516 6.23589 2.87601e-07 87.5397 20.251 92.4603 65.9001
Tx-D-R-Rx 
14.7485 -18.758 5.3
39.849 37.3552 2.65878
45.7578 38.102 2.40288
28.2268 31.6341 1.6
13 4 -100.918 -87.5508 5.62418e-07 88.7422 -71.4613 91.2578 114.621
Tx-F-X-R-R-Rx 
14.7485 -18.758 5.3
2.39328 8.20251 4.64884
1.01206 11.2165 4.57604
-11.4425 38.3938 3.91964
40.3942 -4.64892 2.44026
28.2268 31.6341 1.6
14 1 -100.929 -133.052 2.28538e-07 86.9033 -160.016 93.0967 103.998
Tx-D-Rx 
14.7485 -18.758 5.3
4.35096 22.9518 2.97444
28.2268 31.6341 1.6
15 3 -101.132 -44.2101 2.90887e-07 87.5675 20.251 92.4325 -174.664
Tx-R-D-R-Rx 
14.7485 -18.758 5.3
14.0922 -18.8193 5.272
39.849 37.3552 2.64679
45.7578 38.102 2.39379
28.2268 31.6341 1.6
16 2 -101.692 151.472 2.87602e-07 87.5397 20.2067 92.4603 65.9187
Tx-D-R-Rx 
14.7485 -18.758 5.3
39.8167 37.3319 2.66027
45.7612 38.0879 2.4028
28.2268 31.6341 1.6
17 3 -102.18 114.014 2.90888e-07 87.5675 20.2067 92.4325 -174.682
Tx-R-D-R-Rx 
14.7485 -18.758 5.3
14.0921 -18.8191 5.272
39.8167 37.3319 2.64828
45.7612 38.0879 2.39372
28.2268 31.6341 1.6
18 1 -104.157 59.7136 1.75055e-07 85.9558 -108.066 94.0442 81.8864
Tx-D-Rx 
14.7485 -18.758 5.3
17.0461 -2.6415 4.14902
28.2268 31.6341 1.6
19 7 -104.606 -19.9446 3.35784e-07 87.8929 146.29 92.1071 152.148
Tx-R-F-X-F-D-X-R-Rx 
14.7485 -18.758 5.3
13.6291 -18.1665 5.25342
9.30268 10.5895 4.18352
8.76058 14.1927 4.04946
5.03347 38.965 3.12777
4.52532 42.3424 3.00211
4.50701 42.3968 3
2.30598 48.9274 2.74644
28.2268 31.6341 1.6
20 6 -104.808 146.593 3.34096e-07 87.8823 146.29 92.1177 99.4986
Tx-F-X-F-D-X-R-Rx 
14.7485 -18.758 5.3
9.63482 11.8047 4.15413
9.40635 13.1702 4.10294
5.09562 38.934 3.137
4.52532 42.3424 3.0092
4.44584 42.5783 3
2.30598 48.9274 2.75224
28.2268 31.6341 1.6
21 5 -104.864 114.058 3.44025e-07 87.9539 145.89 92.1515 100.247
Tx-F-X-F-X-DS-Rx 
14.7485 -18.758 5.3
9.41229 10.7618 4.17301
8.80474 14.1227 4.0447
4.03913 40.486 3.03822
4.01405 40.6248 3.03292
2.48799 49.0669 2.71062
28.2268 31.6341 1.6
22 2 -105.316 -128.408 3.08454e-07 80.5646 52.4098 90.4214 -177.801
Tx-R-DS-Rx 
14.7485 -18.758 5.3
14.0673 -18.7841 5.29499
39.8878 46.7816 4.77677
28.2268 31.6341 1.6
23 1 -105.663 28.0765 1.74585e-07 85.9449 -101.845 94.0551 73.9053
Tx-D-Rx 
14.7485 -18.758 5.3
25.4011 18.1618 2.57588
28.2268 31.6341 1.6
24 1 -106.099 39.9364 2.45426e-07 87.1166 13.7252 92.8834 63.5525
Tx-D-Rx 
14.7485 -18.758 5.3
41.4181 34.856 2.28395
28.2268 31.6341 1.6
25 4 -106.167 -147.833 5.05203e-07 88.5997 155.493 91.4003 -70.5427
Tx-R-R-R-D-Rx 
14.7485 -18.758 5.3
15.4427 -20.7229 5.24906
35.4407 -36.7749 4.62221
-0.703428 46.6217 2.40037
4.58823 42.4101 2.23505
28.2268 31.6341 1.6
18 25
-74.1297 2.05609e-07 5.88727e-08
1 0 -75.8569 31.4761 1.85012e-07 86.1738 -109.629 93.8262 70.3705
Tx-Rx 
14.7485 -18.758 5.3
33.3337 33.3506 1.6
2 1 -80.7274 94.0034 1.88137e-07 86.2375 -110.297 93.7625 -178.999
Tx-R-Rx 
14.7485 -18.758 5.3
14.0573 -18.77 5.25454
33.3337 33.3506 1.6
3 1 -81.5222 -147.092 1.85647e-07 96.0873 -109.629 96.0873 70.3705
Tx-R-Rx 
14.7485 -18.758 5.3
29.8687 23.6354 0.5
33.3337 33.3506 1.6
4 2 -85.8258 143.611 1.88761e-07 95.9865 -110.297 95.9865 -178.999
Tx-R-R-Rx 
14.7485 -18.758 5.3
14.0573 -18.77 5.22751
29.6951 23.5123 0.5
33.3337 33.3506 1.6
5 3 -88.2932 -169.198 2.61762e-07 87.2967 11.8169 92.7033 59.3335
Tx-F-X-R-Rx 
14.7485 -18.758 5.3
45.3216 32.8018 2.46968
45.6678 33.3856 2.43764
47.391 36.2917 2.27811
33.3337 33.3506 1.6
6 3 -88.7262 127.793 3.45681e-07 87.9533 154.112 92.0467 100.804
Tx-F-X-R-Rx 
14.7485 -18.758 5.3
9.18352 10.4023 4.23908
8.38132 14.6058 4.08615
1.89189 48.6101 2.84899
33.3337 33.3506 1.6
7 1 -89.851 20.5318 1.85647e-07 95.9161 -109.606 96.1279 70.3651
Tx-D-Rx 
14.7485 -18.758 5.3
29.7717 23.3508 0.5
33.3337 33.3506 1.6
8 4 -92.4968 3.62192 2.65243e-07 87.3322 12.1517 92.6678 -168.295
Tx-R-F-X-R-Rx 
14.7485 -18.758 5.3
14.1384 -18.8844 5.27097
45.3216 33.0108 2.44989
45.5304 33.3581 2.43101
47.3378 36.366 2.26749
33.3337 33.3506 1.6
9 4 -92.5611 -136.957 3.4728e-07 87.9627 154.683 92.0373 150.472
Tx-R-F-X-R-Rx 
14.7485 -18.758 5.3
13.5787 -18.0953 5.25217
8.5679 9.66298 4.24878
7.54478 15.3308 4.0439
1.58045 48.3715 2.84956
33.3337 33.3506 1.6
10 2 -94.0271 -47.4599 1.88761e-07 95.8285 -110.275 96.0239 -178.994
Tx-R-D-Rx 
14.7485 -18.758 5.3
14.0573 -18.7701 5.22705
29.5995 23.2423 0.5
33.3337 33.3506 1.6
11 4 -94.7024 -20.0507 3.95783e-07 88.2125 121.96 91.7875 74.3837
Tx-F-X-D-R-Rx 
14.7485 -18.758 5.3
24.7643 17.0754 4.13882
25.482 19.6432 4.05561
32.1299 43.4269 3.2849
16.7236 59.9736 2.57932
33.3337 33.3506 1.6
12 4 -94.7961 -6.40885 2.61762e-07 87.2967 11.6421 92.7033 59.3128
Tx-F-X-R-D-Rx 
14.7485 -18.758 5.3
45.3216 32.7593 2.47141
45.6968 33.3914 2.43671
47.4057 36.2711 2.2786
41.4819 35.0294 1.99281
33.3337 33.3506 1.6
13 4 -95.0912 158.484 3.95783e-07 88.2125 121.95 91.7875 74.392
Tx-F-X-D-R-Rx 
14.7485 -18.758 5.3
24.7597 17.0788 4.13876
25.4758 19.6423 4.05569
32.1254 43.4453 3.28439
16.7279 59.9769 2.57934
33.3337 33.3506 1.6
14 1 -95.4181 -31.9952 2.2758e-07 86.8903 10.5481 93.1097 63.5525
Tx-D-Rx 
14.7485 -18.758 5.3
41.4181 34.856 2.04676
33.3337 33.3506 1.6
15 2 -96.1179 104.186 5.62718e-07 88.7428 -73.2925 91.2572 112.789
Tx-R-R-Rx 
14.7485 -18.758 5.3
-9.79413 39.6568 3.90954
43.9983 -2.17953 2.41407
33.3337 33.3506 1.6
16 1 -96.5921 75.6977 2.84965e-07 81.7894 54.9527 91.4056 67.2866
Tx-DS-Rx 
14.7485 -18.758 5.3
41.3353 44.7579 3.61052
33.3337 33.3506 1.6
17 3 -96.7965 -9.48127 5.13657e-07 88.6227 145.513 91.3773 -74.5714
Tx-R-R-R-Rx 
14.7485 -18.758 5.3
15.1941 -20.3725 5.25973
37.0687 -35.533 4.61986
6.25459 51.9527 2.38986
33.3337 33.3506 1.6
18 1 -97.422 69.6674 2.27584e-07 86.8903 10.7881 93.1097 63.5849
Tx-D-Rx 
14.7485 -18.758 5.3
41.3956 34.8868 2.04586
33.3337 33.3506 1.6
19 3 -97.7868 49.8527 2.07793e-07 88.4969 -107.335 123.762 -64.6976
Tx-DS-F-X-Rx 
14.7485 -18.758 5.3
16.1463 -21.7148 3.11369
17.0631 -18.7776 3.03295
17.4373 -17.5789 3
33.3337 33.3506 1.6
20 1 -97.8433 124.646 2.42405e-07 87.0806 -24.6703 92.9194 53.6293
Tx-D-Rx 
14.7485 -18.758 5.3
48.1224 26.5578 2.42993
33.3337 33.3506 1.6
21 1 -98.0969 -26.7872 2.46486e-07 87.129 -160.262 92.871 103.998
Tx-D-Rx 
14.7485 -18.758 5.3
4.35096 22.9518 3.14422
33.3337 33.3506 1.6
22 4 -99.1546 163.443 5.12372e-07 88.6193 145.112 91.3807 -35.1251
Tx-F-X-R-R-Rx 
14.7485 -18.758 5.3
19.0932 -21.8143 5.17197
21.4028 -23.4391 5.10391
37.8008 -34.9745 4.62068
6.44591 52.0993 2.39006
33.3337 33.3506 1.6
23 1 -99.2919 -116.617 2.42408e-07 87.0807 -24.5653 92.9193 53.6589
Tx-D-Rx 
14.7485 -18.758 5.3
48.1135 26.5947 2.42872
33.3337 33.3506 1.6
24 4 -99.3619 -49.1417 3.9515e-07 88.2096 85.7874 91.7904 89.5529
Tx-F-X-R-R-Rx 
14.7485 -18.758 5.3
14.9936 12.6538 4.31808
15.0448 19.2197 4.11283
15.3547 58.9248 2.87166
34.8425 53.8352 2.24206
33.3337 33.3506 1.6
25 2 -101.207 16.2672 2.4602e-07 87.1236 -24.6703 92.8764 -162.568
Tx-R-D-Rx 
14.7485 -18.758 5.3
14.1762 -18.9377 5.26986
48.1224 26.5578 2.4177
33.3337 33.3506 1.6
