# <Transmitter Set: Tx: 2 TX1 - Point 1> 
# <Receiver Set: Rx: 7 Walk3 > 
# <number of receiver points>
# <receiver point number> <number of paths for this point>
#	rx pt summary:
#	<received power (dBm)>
#	<mean time of arrival (sec)>
#	<delay spread (sec)>
#		path summary:
#		<path number>
#		<total interactions for path> (not including Tx and Rx)
#		<received power(dBm)>
#		<phase(deg)>
#		<time of arrival(sec)>
#		<arrival theta(deg)>
#		<arrival phi(deg)>
#		<departure theta(deg)>
#		<departure phi(deg)>
#			interactions summary:
#			<interaction description> (Tx:transmitter, Rx:receiver, T:transmission, R:reflection, D:diffraction)
#			<cartesian locations of interactions> (including Tx and Rx)
17
1 25
-107.372 3.12585e-07 1.84503e-07
1 1 -112.495 -88.0042 1.75487e-07 78.6539 97.9621 81.9 16.5184
Tx-DS-Rx 
12.0458 -18.3613 5.3
30.6528 -12.8431 8.06217
35.1137 -44.7377 1.6
2 4 -116.629 135.941 5.25884e-07 88.6548 114.803 91.3452 114.516
Tx-F-X-R-D-Rx 
12.0458 -18.3613 5.3
1.15706 5.51455 4.68377
-1.67279 11.7196 4.52362
-13.2175 37.0339 3.87027
3.85026 22.9144 3.3501
35.1137 -44.7377 1.6
3 3 -116.866 157.546 1.7179e-07 84.416 97.4634 91.7699 14.7842
Tx-F-X-DS-Rx 
12.0458 -18.3613 5.3
18.5581 -16.6426 5.09188
18.9055 -16.5509 5.08078
31.0029 -13.3582 4.69417
35.1137 -44.7377 1.6
4 4 -120.586 -118.661 6.16979e-07 88.8534 156.999 91.1466 32.9147
Tx-R-R-D-R-Rx 
12.0458 -18.3613 5.3
68.7097 18.3169 3.94907
15.8464 -21.2921 2.62701
29.3425 -12.2365 2.30173
31.3435 -43.1372 1.68198
35.1137 -44.7377 1.6
5 3 -122.722 -45.6746 5.37918e-07 89.4045 115.765 92.445 107.296
Tx-F-X-DS-Rx 
12.0458 -18.3613 5.3
3.20928 10.0158 4.03095
2.99379 10.7079 4
-6.7476 41.9909 2.60099
35.1137 -44.7377 1.6
6 1 -125.446 -51.2874 1.68144e-07 87.1821 100.472 96.6963 17.1084
Tx-DS-Rx 
12.0458 -18.3613 5.3
29.2591 -13.063 3.18546
35.1137 -44.7377 1.6
7 3 -125.654 -11.0859 6.10133e-07 88.8406 100.059 91.1594 32.9124
Tx-R-R-D-Rx 
12.0458 -18.3613 5.3
68.7112 18.3147 3.9339
15.8495 -21.2964 2.597
29.3489 -12.2394 2.268
35.1137 -44.7377 1.6
8 3 -125.857 55.0702 2.36509e-07 87.0078 84.5541 92.9922 38.9379
Tx-D-R-R-Rx 
12.0458 -18.3613 5.3
30.061 -3.80515 4.08934
27.1855 -37.276 2.33332
35.6189 -39.4391 1.87822
35.1137 -44.7377 1.6
9 2 -126.327 -15.6293 1.86401e-07 86.2024 130.886 93.7976 105.573
Tx-D-R-Rx 
12.0458 -18.3613 5.3
9.18668 -8.10277 4.5931
20.5275 -27.8907 3.07918
35.1137 -44.7377 1.6
10 1 -127.076 109.583 2.72704e-07 89.5344 111.056 97.1701 83.2238
Tx-DS-Rx 
12.0458 -18.3613 5.3
15.0914 7.27051 2.05287
35.1137 -44.7377 1.6
11 1 -127.679 174.563 2.7708e-07 90.5795 110.058 99.1127 81.7343
Tx-DS-Rx 
12.0458 -18.3613 5.3
15.8706 7.96736 1.03252
35.1137 -44.7377 1.6
12 1 -128.3 -134.657 2.07677e-07 86.5919 113.435 93.4081 72.6999
Tx-D-Rx 
12.0458 -18.3613 5.3
16.9106 -2.74231 4.32577
35.1137 -44.7377 1.6
13 3 -128.325 -12.0209 3.65549e-07 88.0646 161.456 91.9354 139.464
Tx-D-R-R-Rx 
12.0458 -18.3613 5.3
-11.3231 1.62289 4.26092
32.0326 -14.8729 2.69335
31.656 -43.5778 1.72325
35.1137 -44.7377 1.6
14 1 -128.474 -25.1461 2.67899e-07 89.5278 112.715 97.469 86.0758
Tx-DS-Rx 
12.0458 -18.3613 5.3
13.739 6.32285 2.05624
35.1137 -44.7377 1.6
15 11 -128.683 -150.984 5.2511e-07 88.6528 129.326 91.3472 124.104
Tx-F-X-F-X-F-X-F-X-R-D-R-Rx 
12.0458 -18.3613 5.3
-2.73307 3.46354 4.68013
-6.38174 8.85176 4.52709
-7.13183 9.95946 4.49563
-8.94864 12.6425 4.41943
-11.3622 16.2067 4.3182
-12.4858 17.8659 4.27107
-17.2807 24.9469 4.06995
-18.9485 27.4099 4
-22.212 32.2292 3.86312
-3.82055 10.8679 3.20021
15.4638 -20.7527 2.32919
35.1137 -44.7377 1.6
16 3 -128.786 -45.6369 2.36523e-07 87.0079 84.5968 92.9921 39.0301
Tx-D-R-R-Rx 
12.0458 -18.3613 5.3
30.0271 -3.78468 4.09011
27.1761 -37.2628 2.33392
35.6154 -39.4341 1.87845
35.1137 -44.7377 1.6
17 5 -128.898 90.0254 1.85702e-07 86.188 125.288 93.812 105.573
Tx-D-F-X-F-X-Rx 
12.0458 -18.3613 5.3
9.18668 -8.10277 4.59043
17.1743 -19.3893 3.66913
17.4253 -19.7439 3.64018
19.3362 -22.444 3.41978
19.8863 -23.2213 3.35634
35.1137 -44.7377 1.6
18 15 -129.056 56.9678 5.23926e-07 88.6497 128.254 91.3503 126.578
Tx-F-X-F-X-F-X-F-X-R-F-X-F-X-F-X-Rx 
12.0458 -18.3613 5.3
-3.5481 2.65281 4.6832
-7.59953 8.11248 4.52295
-8.34575 9.11806 4.49344
-10.2965 11.7469 4.41628
-12.2358 14.3603 4.33957
-14.5243 17.4442 4.24905
-17.4968 21.4499 4.13148
-19.5947 24.277 4.0485
-24.3067 30.6268 3.86212
-19.3344 24.3204 3.67283
-17.2358 21.6587 3.59294
-14.0992 17.6804 3.47353
-11.6948 14.6308 3.38199
-9.80697 12.2364 3.31012
-7.63034 9.47576 3.22726
35.1137 -44.7377 1.6
19 3 -129.089 -122.188 2.88918e-07 87.5509 165.513 92.4491 141.808
Tx-D-R-R-Rx 
12.0458 -18.3613 5.3
-2.65011 -6.79996 4.50026
34.077 -17.8806 2.85949
31.8875 -43.9041 1.74252
35.1137 -44.7377 1.6
20 2 -129.225 -1.1231 2.11264e-07 86.6498 142.42 93.3502 72.6999
Tx-D-R-Rx 
12.0458 -18.3613 5.3
16.9106 -2.74231 4.34237
29.311 -40.2721 2.02862
35.1137 -44.7377 1.6
21 11 -129.449 54.3632 5.254e-07 88.6535 130.06 91.3465 123.996
Tx-F-X-F-X-F-X-F-X-R-D-R-Rx 
12.0458 -18.3613 5.3
-2.69721 3.4994 4.68024
-6.30686 8.85176 4.5285
-7.13183 10.075 4.49382
-8.86333 12.6425 4.42104
-11.439 16.4617 4.31276
-12.3636 17.8326 4.2739
-17.0868 24.8361 4.07534
-18.8791 27.4937 4
-22.1201 32.2995 3.86376
-1.0853 7.96098 3.10765
18.2636 -24.6994 2.21538
35.1137 -44.7377 1.6
22 4 -129.612 -98.8823 2.89046e-07 87.552 165.515 92.448 143.478
Tx-D-R-R-R-Rx 
12.0458 -18.3613 5.3
-0.407801 -9.13886 4.6375
-2.65121 -6.80176 4.499
34.0778 -17.8818 2.85888
31.8876 -43.9043 1.74245
35.1137 -44.7377 1.6
23 11 -130.159 -126.486 5.254e-07 88.6535 130.051 91.3465 123.989
Tx-F-X-F-X-F-X-F-X-R-D-R-Rx 
12.0458 -18.3613 5.3
-2.69502 3.50159 4.68023
-6.30231 8.85176 4.52856
-7.13183 10.0821 4.49369
-8.85814 12.6425 4.42111
-11.4459 16.4805 4.31231
-12.3562 17.8306 4.27403
-17.075 24.8294 4.07563
-18.8739 27.4973 4
-22.1145 32.3038 3.86375
-1.15506 8.05809 3.11045
18.2333 -24.6567 2.2166
35.1137 -44.7377 1.6
24 1 -130.332 -68.0424 2.66363e-07 89.5777 113.822 97.7237 88.3216
Tx-DS-Rx 
12.0458 -18.3613 5.3
12.7567 5.90074 2.00802
35.1137 -44.7377 1.6
25 3 -130.342 36.5699 1.66704e-07 87.3605 99.9353 97.02 14.9031
Tx-F-X-DS-Rx 
12.0458 -18.3613 5.3
18.7064 -16.5886 4.45127
18.8611 -16.5475 4.43157
29.6719 -13.6703 3.054
35.1137 -44.7377 1.6
2 25
-105.393 2.78461e-07 1.8584e-07
1 1 -110.64 161.695 1.60064e-07 76.8237 93.8084 81.9865 16.5221
Tx-DS-Rx 
12.0458 -18.3613 5.3
30.652 -12.842 8.03222
32.4769 -40.2564 1.6
2 3 -114.859 46.9931 1.56182e-07 83.4622 93.1333 91.7909 14.7758
Tx-F-X-DS-Rx 
12.0458 -18.3613 5.3
18.5479 -16.6463 5.08975
18.9086 -16.5511 5.07808
31.0046 -13.3607 4.68695
32.4769 -40.2564 1.6
3 2 -118.28 -1.92566 3.4229e-07 87.933 89.8688 92.067 139.464
Tx-D-R-Rx 
12.0458 -18.3613 5.3
-11.3231 1.62289 4.19023
32.5334 -15.6094 2.48956
32.4769 -40.2564 1.6
4 4 -120.633 -167.927 5.08631e-07 88.6091 114.378 91.3909 114.516
Tx-F-X-R-D-Rx 
12.0458 -18.3613 5.3
1.15706 5.51455 4.66286
-1.67279 11.7196 4.49727
-13.2175 37.0339 3.82174
3.85026 22.9144 3.28392
32.4769 -40.2564 1.6
5 2 -120.741 132.845 3.21133e-07 87.7967 88.6641 92.2033 140.224
Tx-D-R-Rx 
12.0458 -18.3613 5.3
-9.02703 -0.819203 4.24512
33.0345 -16.3466 2.52013
32.4769 -40.2564 1.6
6 2 -121.3 161.291 2.36495e-07 87.0076 156.845 92.9924 58.0471
Tx-D-R-Rx 
12.0458 -18.3613 5.3
25.1531 2.65323 4.0053
27.9161 -38.3058 1.85931
32.4769 -40.2564 1.6
7 3 -121.387 55.897 5.94071e-07 88.8092 96.3767 91.1908 32.9136
Tx-R-R-D-Rx 
12.0458 -18.3613 5.3
68.7104 18.3158 3.89695
15.848 -21.2943 2.52389
29.3457 -12.238 2.18602
32.4769 -40.2564 1.6
8 3 -121.434 -166.532 3.21191e-07 87.7971 88.657 92.2029 141.598
Tx-D-R-R-Rx 
12.0458 -18.3613 5.3
-2.67641 -6.69178 4.57737
-9.03158 -0.826641 4.24471
33.0374 -16.3509 2.51981
32.4769 -40.2564 1.6
9 7 -121.879 -43.9731 5.07597e-07 88.6063 144.914 91.3937 120.506
Tx-F-X-F-X-R-D-R-Rx 
12.0458 -18.3613 5.3
-1.59856 4.79705 4.64605
-4.18005 9.17857 4.52233
-12.932 24.0332 4.10286
-15.0782 27.6758 4
-18.2983 33.1412 3.84567
16.7686 -2.65492 2.62651
26.1439 -35.8077 1.78829
32.4769 -40.2564 1.6
10 2 -122.321 170.745 3.2114e-07 87.7968 88.6317 92.2032 140.306
Tx-D-R-Rx 
12.0458 -18.3613 5.3
-9.04773 -0.853015 4.24536
33.0476 -16.3659 2.51939
32.4769 -40.2564 1.6
11 3 -122.976 7.09889 5.07674e-07 89.3018 118.714 92.417 111.817
Tx-F-X-DS-Rx 
12.0458 -18.3613 5.3
2.09203 6.50349 4.16949
0.599725 10.2313 4
-10.8545 38.8443 2.69907
32.4769 -40.2564 1.6
12 2 -123.16 -66.846 2.36497e-07 87.0076 156.808 92.9924 58.1159
Tx-D-R-Rx 
12.0458 -18.3613 5.3
25.123 2.66112 4.0058
27.9125 -38.3009 1.85958
32.4769 -40.2564 1.6
13 1 -123.394 79.1925 1.52046e-07 86.6847 96.7388 96.6944 17.0779
Tx-DS-Rx 
12.0458 -18.3613 5.3
29.2648 -13.0713 3.1857
32.4769 -40.2564 1.6
14 2 -124.224 -161.727 1.69416e-07 85.821 132.233 94.179 105.573
Tx-D-R-Rx 
12.0458 -18.3613 5.3
9.18668 -8.10277 4.52187
17.9388 -24.2416 3.18041
32.4769 -40.2564 1.6
15 2 -125.202 22.6844 2.65532e-07 87.3351 85.456 92.6649 141.808
Tx-D-R-Rx 
12.0458 -18.3613 5.3
-2.65011 -6.79996 4.42967
34.2366 -18.1154 2.63381
32.4769 -40.2564 1.6
16 3 -125.431 -170.794 3.66733e-07 88.0708 174.969 91.9292 167.712
Tx-D-R-R-Rx 
12.0458 -18.3613 5.3
-18.3145 -11.7483 4.25338
34.5313 -18.549 2.45866
29.0882 -39.9581 1.71459
32.4769 -40.2564 1.6
17 1 -126.203 91.3411 2.55616e-07 89.4874 110.094 97.1706 83.2252
Tx-DS-Rx 
12.0458 -18.3613 5.3
15.0907 7.26988 2.05274
32.4769 -40.2564 1.6
18 3 -126.596 -47.0588 3.66735e-07 88.0708 174.955 91.9292 167.675
Tx-D-R-R-Rx 
12.0458 -18.3613 5.3
-18.3115 -11.7287 4.25334
34.5265 -18.5419 2.45885
29.0875 -39.9571 1.71461
32.4769 -40.2564 1.6
19 8 -127.195 55.7518 5.07404e-07 88.6058 122.038 91.3942 124.999
Tx-F-X-F-X-F-X-R-D-Rx 
12.0458 -18.3613 5.3
-3.02856 3.16805 4.66033
-6.83348 8.60228 4.49887
-7.49311 9.54438 4.47088
-9.55468 12.4887 4.3834
-11.3622 15.0702 4.3067
-13.4444 18.0441 4.21834
-22.9703 31.6491 3.81411
18.8652 -18.5051 2.22451
32.4769 -40.2564 1.6
20 3 -127.475 168.398 3.31856e-07 87.868 165.341 92.132 140.224
Tx-D-R-R-Rx 
12.0458 -18.3613 5.3
-9.02703 -0.819203 4.27925
30.7096 -12.9267 2.73278
28.5759 -39.2359 1.75012
32.4769 -40.2564 1.6
21 1 -127.498 -34.0655 1.90509e-07 86.2844 112.536 93.7156 72.6999
Tx-D-Rx 
12.0458 -18.3613 5.3
16.9106 -2.74231 4.23762
32.4769 -40.2564 1.6
22 2 -127.902 -159.049 2.15515e-07 71.5032 140.366 90.3774 38.9379
Tx-D-DS-Rx 
12.0458 -18.3613 5.3
30.061 -3.80515 5.14742
24.7734 -33.8758 4.94629
32.4769 -40.2564 1.6
23 3 -128.251 -177.048 1.50675e-07 86.8851 96.0116 97.0177 14.8701
Tx-F-X-DS-Rx 
12.0458 -18.3613 5.3
18.6646 -16.6039 4.45701
18.8733 -16.5484 4.43042
29.6781 -13.6795 3.05428
32.4769 -40.2564 1.6
24 2 -128.46 86.064 2.16184e-07 71.7155 139.342 90.1705 39.0301
Tx-D-DS-Rx 
12.0458 -18.3613 5.3
30.0271 -3.78468 5.23111
24.3454 -33.2725 5.14172
32.4769 -40.2564 1.6
25 15 -128.516 17.4126 5.06747e-07 88.604 128.519 91.396 126.312
Tx-F-X-F-X-F-X-F-X-R-F-X-F-X-F-X-Rx 
12.0458 -18.3613 5.3
-3.45949 2.73712 4.66191
-7.48328 8.2124 4.49632
-8.20176 9.19005 4.46675
-10.1722 11.8712 4.38566
-12.0644 14.446 4.30779
-14.3421 17.5454 4.21406
-17.3172 21.5936 4.09162
-19.3225 24.3224 4.0091
-24.082 30.7987 3.81323
-18.9732 24.3806 3.61332
-17.084 22.0071 3.53939
-13.7808 17.8573 3.41013
-11.3622 14.8188 3.31549
-9.52841 12.515 3.24373
-7.25758 9.66214 3.15487
32.4769 -40.2564 1.6
3 25
-106.091 2.72785e-07 1.99359e-07
1 1 -108.611 19.8053 1.45272e-07 74.4297 88.1722 82.1295 16.5385
Tx-DS-Rx 
12.0458 -18.3613 5.3
30.6488 -12.8372 7.98259
29.9182 -35.7313 1.6
2 3 -112.609 -38.9914 1.41179e-07 82.1884 87.2181 91.833 14.7733
Tx-F-X-DS-Rx 
12.0458 -18.3613 5.3
18.5448 -16.6474 5.0849
18.9096 -16.5512 5.07283
31.0052 -13.3615 4.67251
29.9182 -35.7313 1.6
3 2 -113.34 -70.6697 1.97534e-07 86.4167 169.086 93.5833 38.9379
Tx-D-R-Rx 
12.0458 -18.3613 5.3
30.061 -3.80515 3.8496
25.483 -34.8761 1.88286
29.9182 -35.7313 1.6
4 2 -115.252 -17.8632 1.9754e-07 86.4168 169.028 93.5832 39.0301
Tx-D-R-Rx 
12.0458 -18.3613 5.3
30.0271 -3.78468 3.85049
25.4791 -34.8706 1.88315
29.9182 -35.7313 1.6
5 3 -115.94 88.1883 5.78416e-07 88.777 91.4184 91.223 32.917
Tx-R-R-D-Rx 
12.0458 -18.3613 5.3
68.7081 18.3191 3.85896
15.8433 -21.2877 2.44873
29.3363 -12.2333 2.10182
29.9182 -35.7313 1.6
6 5 -116.943 168.551 6.38116e-07 88.8914 166.67 91.1086 87.7991
Tx-F-X-R-R-R-Rx 
12.0458 -18.3613 5.3
13.2335 12.5438 4.70152
13.4941 19.3231 4.57023
15.0058 58.6575 3.80851
34.5986 54.1762 3.41958
25.3162 -34.6409 1.69152
29.9182 -35.7313 1.6
7 3 -118.286 10.5007 3.28161e-07 87.8439 -16.0558 92.1561 140.224
Tx-D-R-R-Rx 
12.0458 -18.3613 5.3
-9.02703 -0.819203 4.26774
34.6855 -18.7759 2.4886
34.9213 -37.1712 1.796
29.9182 -35.7313 1.6
8 3 -119.629 145.93 3.28163e-07 87.844 -16.0241 92.156 140.306
Tx-D-R-R-Rx 
12.0458 -18.3613 5.3
-9.04773 -0.853015 4.26796
34.6988 -18.7955 2.48786
34.9242 -37.169 1.79608
29.9182 -35.7313 1.6
9 2 -120.538 -3.62497 3.41047e-07 87.9254 75.544 92.0746 167.712
Tx-D-R-Rx 
12.0458 -18.3613 5.3
-18.3145 -11.7483 4.17445
34.3982 -18.3532 2.25008
29.9182 -35.7313 1.6
10 2 -120.589 -125.868 1.5261e-07 85.3598 134.114 94.6402 105.573
Tx-D-R-Rx 
12.0458 -18.3613 5.3
9.18668 -8.10277 4.43564
15.6495 -21.0145 3.26373
29.9182 -35.7313 1.6
11 1 -121.044 62.5919 1.36371e-07 85.9963 91.6357 96.6923 17.0421
Tx-DS-Rx 
12.0458 -18.3613 5.3
29.2714 -13.0811 3.18598
29.9182 -35.7313 1.6
12 4 -121.389 172.244 4.91365e-07 88.5603 113.965 91.4397 114.516
Tx-F-X-R-D-Rx 
12.0458 -18.3613 5.3
1.15706 5.51455 4.64045
-1.67279 11.7196 4.46905
-13.2175 37.0339 3.76977
3.85026 22.9144 3.21303
29.9182 -35.7313 1.6
13 3 -121.59 -154.304 5.03671e-07 89.2473 115.255 92.3291 107.295
Tx-F-X-DS-Rx 
12.0458 -18.3613 5.3
3.21075 10.0127 4.09132
2.54324 12.1564 4
-6.74676 41.9915 2.72908
29.9182 -35.7313 1.6
14 2 -121.638 -177.952 2.00626e-07 66.4531 158.279 91.2822 38.9379
Tx-D-DS-Rx 
12.0458 -18.3613 5.3
30.061 -3.80515 4.78159
24.5815 -33.6053 4.10339
29.9182 -35.7313 1.6
15 2 -121.648 124.368 3.4105e-07 87.9255 75.5599 92.0745 167.675
Tx-D-R-Rx 
12.0458 -18.3613 5.3
-18.3115 -11.7287 4.17442
34.3945 -18.3477 2.25023
29.9182 -35.7313 1.6
16 2 -122.167 153.462 2.00778e-07 66.5556 156.023 91.1267 39.0301
Tx-D-DS-Rx 
12.0458 -18.3613 5.3
30.0271 -3.78468 4.84476
24.325 -33.2437 4.25463
29.9182 -35.7313 1.6
17 2 -122.472 -102.149 3.06432e-07 87.691 86.3025 92.309 140.224
Tx-D-R-Rx 
12.0458 -18.3613 5.3
-9.02703 -0.819203 4.19442
31.3327 -13.8432 2.48441
29.9182 -35.7313 1.6
18 3 -122.49 105.311 6.32804e-07 88.8821 121.185 91.1179 58.0471
Tx-D-R-R-Rx 
12.0458 -18.3613 5.3
25.1531 2.65323 4.81671
31.4478 -10.7787 4.52725
-13.8374 36.559 3.24891
29.9182 -35.7313 1.6
19 3 -123.81 -89.3385 6.32805e-07 88.8821 121.177 91.1179 57.9893
Tx-D-R-R-Rx 
12.0458 -18.3613 5.3
25.1816 2.65163 4.81644
31.4669 -10.7656 4.52732
-13.8271 36.5669 3.24894
29.9182 -35.7313 1.6
20 2 -124.481 -89.8401 1.52617e-07 85.36 134.064 94.64 105.741
Tx-D-R-Rx 
12.0458 -18.3613 5.3
9.15729 -8.11302 4.43584
15.5803 -20.917 3.27324
29.9182 -35.7313 1.6
21 2 -124.597 -53.1372 2.51422e-07 87.1854 82.5179 92.8146 141.808
Tx-D-R-Rx 
12.0458 -18.3613 5.3
-2.65011 -6.79996 4.38072
32.5564 -15.6433 2.59607
29.9182 -35.7313 1.6
22 2 -124.913 -176.758 3.06444e-07 87.6911 86.2682 92.3089 140.306
Tx-D-R-Rx 
12.0458 -18.3613 5.3
-9.04773 -0.853015 4.1947
31.3447 -13.8609 2.4837
29.9182 -35.7313 1.6
23 6 -124.957 163.191 6.64206e-07 88.935 151.134 91.065 64.8935
Tx-R-D-R-F-X-R-Rx 
12.0458 -18.3613 5.3
41.5084 44.5159 4.00911
32.1928 43.4946 3.83489
9.06815 54.1083 3.36187
10.4 46.2091 3.21295
11.6789 38.6237 3.06994
23.631 -32.2654 1.73347
29.9182 -35.7313 1.6
24 1 -125.246 -11.5916 2.38532e-07 89.4299 109.026 97.1711 83.227
Tx-DS-Rx 
12.0458 -18.3613 5.3
15.0898 7.26909 2.0526
29.9182 -35.7313 1.6
25 4 -125.662 -8.21368 1.51653e-06 89.5336 145.725 90.4664 135.065
Tx-D-R-R-R-Rx 
12.0458 -18.3613 5.3
-104.663 98.0824 3.95782
35.7393 -36.5471 2.3742
12.7223 5.88705 1.98119
22.5062 -30.6799 1.67302
29.9182 -35.7313 1.6
4 25
-102.547 4.02721e-07 3.62884e-07
1 1 -107.045 172.133 1.30308e-07 70.94 88.2776 82.3718 16.56
Tx-DS-Rx 
12.0458 -18.3613 5.3
30.6445 -12.8309 7.89871
30.0965 -31.0534 1.6
2 3 -110.636 133.119 1.25759e-07 80.2343 87.0473 91.9039 14.7555
Tx-F-X-DS-Rx 
12.0458 -18.3613 5.3
18.5233 -16.6552 5.07733
18.9163 -16.5517 5.06382
31.0088 -13.3668 4.64814
30.0965 -31.0534 1.6
3 1 -111.102 -33.3397 1.17295e-06 89.3969 136.221 90.6031 135.065
Tx-D-Rx 
12.0458 -18.3613 5.3
-104.663 98.0824 3.56463
30.0965 -31.0534 1.6
4 4 -112.206 -134.053 2.74594e-07 87.4231 144.904 92.5769 100.827
Tx-F-X-D-R-Rx 
12.0458 -18.3613 5.3
6.84728 8.82169 4.05443
6.62009 10.0096 4
6.29795 11.6941 3.92281
15.4897 -20.7892 2.40347
30.0965 -31.0534 1.6
5 2 -112.451 -105.911 8.98665e-07 89.2128 138.692 90.7872 138.172
Tx-R-R-Rx 
12.0458 -18.3613 5.3
-77.4515 61.7365 3.64983
-79.1994 64.9915 3.59907
30.0965 -31.0534 1.6
6 6 -113.102 69.7232 2.59733e-07 87.2755 -157.991 92.7245 17.4208
Tx-R-F-X-R-R-R-Rx 
12.0458 -18.3613 5.3
30.4733 -12.5791 4.38094
22.9885 -21.821 3.81501
21.8385 -23.241 3.72805
19.3814 -26.275 3.54226
35.7881 -20.3983 2.71295
24.4036 -33.3546 1.8922
30.0965 -31.0534 1.6
7 2 -115.866 30.4416 3.2582e-07 87.8284 74.6866 92.1716 167.712
Tx-D-R-Rx 
12.0458 -18.3613 5.3
-18.3145 -11.7483 4.12178
33.8108 -17.4888 2.13329
30.0965 -31.0534 1.6
8 2 -115.958 102.972 1.17295e-06 89.3969 136.202 90.6031 135.086
Tx-R-R-Rx 
12.0458 -18.3613 5.3
-104.367 97.7015 3.56967
-104.616 98.1203 3.56455
30.0965 -31.0534 1.6
9 4 -116.656 -0.634197 2.74595e-07 87.4231 144.778 92.5769 101.04
Tx-F-X-D-R-Rx 
12.0458 -18.3613 5.3
6.74651 8.79896 4.05458
6.51426 9.98933 4
6.18677 11.6678 3.92303
15.421 -20.6924 2.4085
30.0965 -31.0534 1.6
10 2 -116.756 179.083 3.25821e-07 87.8285 74.7037 92.1715 167.675
Tx-D-R-Rx 
12.0458 -18.3613 5.3
-18.3115 -11.7287 4.12173
33.8077 -17.4843 2.13342
30.0965 -31.0534 1.6
11 7 -117.398 6.65839 4.77958e-07 88.5199 130.068 91.4801 124.764
Tx-F-X-F-X-F-X-R-Rx 
12.0458 -18.3613 5.3
-2.95116 3.24545 4.6204
-6.71754 8.67184 4.44972
-7.36694 9.60746 4.42029
-9.44377 12.5996 4.32618
-11.3622 15.3636 4.23924
-13.2422 18.0722 4.15405
-22.7714 31.8013 3.72222
30.0965 -31.0534 1.6
12 2 -118.657 144.125 1.96165e-07 86.3916 176.51 93.6084 39.0301
Tx-D-R-Rx 
12.0458 -18.3613 5.3
30.0271 -3.78468 3.8403
22.4399 -30.5865 2.08373
30.0965 -31.0534 1.6
13 1 -119.128 -152.206 1.20804e-07 84.9542 92.5858 96.6876 16.964
Tx-DS-Rx 
12.0458 -18.3613 5.3
29.2858 -13.1023 3.18659
30.0965 -31.0534 1.6
14 2 -119.293 2.11718 2.00827e-07 67.3907 -159.246 91.2167 38.9379
Tx-D-DS-Rx 
12.0458 -18.3613 5.3
30.061 -3.80515 4.80809
24.3232 -33.2412 4.17115
30.0965 -31.0534 1.6
15 2 -119.534 170.15 2.00538e-07 66.9817 -162.45 91.1197 39.0301
Tx-D-DS-Rx 
12.0458 -18.3613 5.3
30.0271 -3.78468 4.84757
24.1135 -32.9456 4.266
30.0965 -31.0534 1.6
16 1 -120.606 -116.83 8.98675e-07 89.2129 138.94 90.7871 137.881
Tx-D-Rx 
12.0458 -18.3613 5.3
-79.7002 64.5937 3.60062
30.0965 -31.0534 1.6
17 3 -120.607 -51.6324 8.63833e-07 89.1811 116.292 90.8189 -161.56
Tx-R-R-D-Rx 
12.0458 -18.3613 5.3
-82.5674 -49.9087 3.87446
-74.5219 -25.323 3.50471
11.7363 6.10944 2.19247
30.0965 -31.0534 1.6
18 3 -120.607 -51.6324 8.63833e-07 89.1811 116.292 90.8189 -161.56
Tx-R-R-D-Rx 
12.0458 -18.3613 5.3
-82.5674 -49.9087 3.87446
-74.5219 -25.323 3.50471
11.7363 6.10944 2.19247
30.0965 -31.0534 1.6
19 3 -121.124 50.0268 4.89818e-07 89.2611 116.827 92.3974 107.371
Tx-F-X-DS-Rx 
12.0458 -18.3613 5.3
3.08678 10.2783 4.04367
2.77538 11.2738 4
-6.81688 41.9378 2.65486
30.0965 -31.0534 1.6
20 2 -121.284 109.495 1.96175e-07 86.3918 176.572 93.6082 38.9379
Tx-D-R-Rx 
12.0458 -18.3613 5.3
30.061 -3.80515 3.83952
22.446 -30.5951 2.08329
30.0965 -31.0534 1.6
21 2 -122.046 -158.903 2.90831e-07 87.567 86.1837 92.433 140.224
Tx-D-R-Rx 
12.0458 -18.3613 5.3
-9.02703 -0.819203 4.13501
31.2524 -13.7252 2.33789
30.0965 -31.0534 1.6
22 3 -122.494 -11.9568 6.19829e-07 88.8587 122.093 91.1413 57.9893
Tx-D-R-R-Rx 
12.0458 -18.3613 5.3
25.1816 2.65163 4.80631
31.6645 -10.6302 4.51187
-12.8027 37.3517 3.20859
30.0965 -31.0534 1.6
23 6 -123.072 24.1264 2.59733e-07 87.2755 -157.991 92.7245 17.4208
Tx-R-F-X-R-R-R-Rx 
12.0458 -18.3613 5.3
30.4733 -12.5791 4.38094
22.9885 -21.821 3.81501
21.8385 -23.241 3.72805
19.3814 -26.275 3.54226
35.7881 -20.3983 2.71295
24.4036 -33.3546 1.8922
30.0965 -31.0534 1.6
24 1 -123.227 179.1 2.2769e-07 90.9429 110.323 99.4139 82.0517
Tx-DS-Rx 
12.0458 -18.3613 5.3
15.7006 7.81532 0.91785
30.0965 -31.0534 1.6
25 2 -123.358 -28.4329 1.69802e-07 85.8305 84.2817 94.1695 105.276
Tx-D-R-Rx 
12.0458 -18.3613 5.3
9.23434 -8.06731 4.52208
31.7573 -14.4679 2.81514
30.0965 -31.0534 1.6
5 25
-98.8583 1.71475e-07 1.18478e-07
1 3 -102.543 -66.9039 1.26109e-07 84.3818 137.048 95.6182 105.412
Tx-D-F-X-Rx 
12.0458 -18.3613 5.3
9.21332 -8.08665 4.25157
18.4472 -16.6829 3.01053
18.5256 -16.7559 3
28.9422 -26.4532 1.6
2 5 -104.708 -119.855 2.1205e-07 86.6623 47.6598 93.3377 18.4558
Tx-R-F-X-R-R-Rx 
12.0458 -18.3613 5.3
30.2695 -12.2793 4.17956
22.8746 -21.0804 3.50914
20.9138 -23.4139 3.33138
18.9824 -25.7126 3.15628
35.2205 -19.5631 2.14363
28.9422 -26.4532 1.6
3 1 -104.881 -12.7885 1.16178e-07 65.9665 82.9598 82.8529 16.6447
Tx-DS-Rx 
12.0458 -18.3613 5.3
30.6276 -12.806 7.73189
28.9422 -26.4532 1.6
4 3 -104.895 97.3637 1.26109e-07 84.3818 137.112 95.6182 105.573
Tx-D-F-X-Rx 
12.0458 -18.3613 5.3
9.18668 -8.10277 4.2524
18.4304 -16.689 3.01133
18.5148 -16.7674 3
28.9422 -26.4532 1.6
5 3 -107.791 -97.8368 1.11176e-07 77.2889 81.039 92.0764 14.7676
Tx-F-X-DS-Rx 
12.0458 -18.3613 5.3
18.5379 -16.6499 5.05659
18.9117 -16.5514 5.04257
31.0063 -13.3632 4.5891
28.9422 -26.4532 1.6
6 4 -110.468 1.57199 1.53996e-07 85.4017 -164.521 94.5983 13.1926
Tx-F-X-R-R-Rx 
12.0458 -18.3613 5.3
17.6336 -17.0514 4.83839
19.5556 -16.6009 4.67963
31.3309 -13.8406 3.70688
21.0569 -28.6369 2.25808
28.9422 -26.4532 1.6
7 2 -112.565 47.4232 1.15086e-07 126.803 -173.023 97.8797 19.6011
Tx-D-DS-Rx 
12.0458 -18.3613 5.3
29.3071 -12.2145 2.76407
27.8334 -26.5889 0.764216
28.9422 -26.4532 1.6
8 2 -112.754 112.813 1.14834e-07 121.419 172.213 97.9473 19.6103
Tx-D-DS-Rx 
12.0458 -18.3613 5.3
29.3043 -12.2123 2.74231
27.5887 -26.2681 0.765519
28.9422 -26.4532 1.6
9 2 -113.113 -58.9102 3.18547e-07 87.7788 165.334 92.2212 77.0934
Tx-D-R-Rx 
12.0458 -18.3613 5.3
20.8929 20.2469 3.76373
17.3568 -23.4211 2.06449
28.9422 -26.4532 1.6
10 1 -113.631 -117.866 1.53441e-07 85.385 87.1719 94.615 38.9379
Tx-D-Rx 
12.0458 -18.3613 5.3
30.061 -3.80515 3.43041
28.9422 -26.4532 1.6
11 2 -114.108 89.6744 1.17427e-07 127.414 -117.809 97.6661 19.592
Tx-D-DS-Rx 
12.0458 -18.3613 5.3
29.3098 -12.2166 2.83342
28.4466 -27.3929 0.787352
28.9422 -26.4532 1.6
12 1 -114.637 -164.574 1.86931e-07 86.2131 148.176 93.7869 141.928
Tx-D-Rx 
12.0458 -18.3613 5.3
-2.67082 -6.83377 4.06266
28.9422 -26.4532 1.6
13 5 -114.997 49.7506 5.96131e-07 88.8133 86.4595 91.1867 73.3937
Tx-D-F-X-R-R-Rx 
12.0458 -18.3613 5.3
16.7633 -2.5432 4.95808
16.6954 14.7292 4.60028
16.6857 17.2122 4.54885
16.5184 59.8164 3.66632
33.984 55.0354 3.29122
28.9422 -26.4532 1.6
14 2 -115.668 122.362 1.14827e-07 114.964 159.377 98.0658 19.6197
Tx-D-DS-Rx 
12.0458 -18.3613 5.3
29.3016 -12.2101 2.7039
27.2418 -25.8133 0.754179
28.9422 -26.4532 1.6
15 5 -115.832 -130.923 5.96131e-07 88.8133 86.4566 91.1867 73.3645
Tx-D-F-X-R-R-Rx 
12.0458 -18.3613 5.3
16.7552 -2.59958 4.95924
16.6881 14.7166 4.60055
16.6783 17.2257 4.54857
16.5133 59.8125 3.6664
33.9879 55.03 3.29111
28.9422 -26.4532 1.6
16 1 -116.09 13.3719 1.05454e-07 83.2086 88.444 96.6817 16.8652
Tx-DS-Rx 
12.0458 -18.3613 5.3
29.3041 -13.1292 3.18735
28.9422 -26.4532 1.6
17 2 -116.541 -164.653 1.15607e-07 125.974 -145.694 97.5615 19.6011
Tx-D-DS-Rx 
12.0458 -18.3613 5.3
29.3071 -12.2145 2.86772
28.1448 -26.9972 0.899343
28.9422 -26.4532 1.6
18 2 -116.741 -92.2609 3.18548e-07 87.7788 165.217 92.2212 77.2583
Tx-D-R-Rx 
12.0458 -18.3613 5.3
20.78 20.2643 3.76405
17.3347 -23.39 2.06562
28.9422 -26.4532 1.6
19 1 -117.512 50.7253 1.53459e-07 85.3855 87.26 94.6145 39.0301
Tx-D-Rx 
12.0458 -18.3613 5.3
30.0271 -3.78468 3.43172
28.9422 -26.4532 1.6
20 1 -117.788 36.2727 1.86947e-07 86.2135 148.115 93.7865 141.808
Tx-D-Rx 
12.0458 -18.3613 5.3
-2.65011 -6.79996 4.06246
28.9422 -26.4532 1.6
21 2 -117.888 -109.843 1.17393e-07 138.27 -131.448 98.1975 19.592
Tx-D-DS-Rx 
12.0458 -18.3613 5.3
29.3098 -12.2166 2.66016
28.2917 -27.1898 0.498177
28.9422 -26.4532 1.6
22 3 -118.352 -143.779 5.47459e-07 88.7078 88.4248 91.2922 32.9182
Tx-R-R-D-Rx 
12.0458 -18.3613 5.3
68.7073 18.3202 3.77744
15.8417 -21.2854 2.28742
29.3333 -12.2317 1.92092
28.9422 -26.4532 1.6
23 3 -119.148 82.4125 1.18564e-07 128.227 -178.444 97.8373 19.3374
Tx-D-R-DS-Rx 
12.0458 -18.3613 5.3
29.444 -12.2558 2.762
30.3768 -12.4372 2.6312
27.7545 -26.4854 0.664103
28.9422 -26.4532 1.6
24 3 -119.511 137.358 1.18329e-07 115.194 159.313 97.832 19.3347
Tx-D-R-DS-Rx 
12.0458 -18.3613 5.3
29.4475 -12.2555 2.76329
30.345 -12.3904 2.63845
27.2395 -25.8102 0.743752
28.9422 -26.4532 1.6
25 2 -120.438 142.803 1.22719e-07 92.5553 53.4189 98.773 19.429
Tx-D-DS-Rx 
12.0458 -18.3613 5.3
29.3751 -12.2488 2.46416
34.6637 -18.7438 1.17155
28.9422 -26.4532 1.6
6 25
-98.2588 1.37449e-07 1.02478e-07
1 4 -98.5318 -162.435 1.0094e-07 83.0721 55.7075 97.0861 12.7026
Tx-F-X-D-R-Rx 
12.0458 -18.3613 5.3
17.554 -17.1197 4.5981
19.7792 -16.6181 4.31453
30.095 -14.2929 3
31.4332 -13.9911 2.83332
25.7144 -22.3768 1.6
2 1 -100.795 149.555 1.4146e-07 84.9932 76.9404 95.0068 39.0301
Tx-D-Rx 
12.0458 -18.3613 5.3
30.0271 -3.78468 3.27208
25.7144 -22.3768 1.6
3 1 -102.517 -117.038 1.41465e-07 84.9933 76.8274 95.0067 38.9379
Tx-D-Rx 
12.0458 -18.3613 5.3
30.061 -3.80515 3.27096
25.7144 -22.3768 1.6
4 1 -102.589 -39.3668 1.0687e-07 61.4134 63.1646 83.5755 16.8494
Tx-DS-Rx 
12.0458 -18.3613 5.3
30.5867 -12.746 7.48137
25.7144 -22.3768 1.6
5 2 -104.15 39.0698 1.02153e-07 115.622 -159.712 97.7735 19.6777
Tx-D-DS-Rx 
12.0458 -18.3613 5.3
29.2863 -12.1959 2.80051
25.0594 -22.619 1.2651
25.7144 -22.3768 1.6
6 3 -104.86 28.8594 1.02101e-07 74.5513 59.8578 92.3525 14.9211
Tx-F-X-DS-Rx 
12.0458 -18.3613 5.3
18.7295 -16.5803 5.01584
18.8544 -16.547 5.01053
30.975 -13.3171 4.49522
25.7144 -22.3768 1.6
7 2 -107.701 -168.88 1.02245e-07 116.385 -170.996 97.8764 19.6877
Tx-D-DS-Rx 
12.0458 -18.3613 5.3
29.2839 -12.1934 2.76721
24.9608 -22.4963 1.22151
25.7144 -22.3768 1.6
8 4 -108.874 -7.43391 1.05966e-07 123.19 -154.185 97.7096 13.3395
Tx-F-X-R-DS-Rx 
12.0458 -18.3613 5.3
17.658 -17.0305 4.51917
19.4909 -16.5959 4.26417
31.3004 -13.7957 2.62112
25.1026 -22.6728 1.15546
25.7144 -22.3768 1.6
9 2 -108.988 149.926 1.39976e-07 85.9304 -159.169 96.3809 18.4734
Tx-D-R-Rx 
12.0458 -18.3613 5.3
29.0086 -12.6944 3.3
18.5498 -25.1028 2.1454
25.7144 -22.3768 1.6
10 1 -109.11 -20.3947 1.70806e-07 85.8551 151.296 94.1449 141.928
Tx-D-Rx 
12.0458 -18.3613 5.3
-2.67082 -6.83377 3.94526
25.7144 -22.3768 1.6
11 3 -109.162 126.485 1.48147e-07 85.9134 -158.29 95.5867 19.3902
Tx-R-D-R-Rx 
12.0458 -18.3613 5.3
30.0873 -12.0113 3.42912
29.2217 -13.008 3.3
18.6198 -25.2016 2.14557
25.7144 -22.3768 1.6
12 4 -109.43 -15.317 1.05443e-07 101.274 -132.144 97.1207 12.8767
Tx-F-X-R-DS-Rx 
12.0458 -18.3613 5.3
17.582 -17.0957 4.59056
19.6984 -16.6119 4.31936
31.3968 -13.9376 2.82025
25.2644 -22.8741 1.4663
25.7144 -22.3768 1.6
13 2 -109.709 -169.423 1.03324e-07 108.697 -109.836 97.5555 19.6678
Tx-D-DS-Rx 
12.0458 -18.3613 5.3
29.2887 -12.1984 2.87122
25.4511 -23.1066 1.33744
25.7144 -22.3768 1.6
14 1 -111.157 -28.8072 1.70815e-07 85.8553 151.226 94.1447 141.808
Tx-D-Rx 
12.0458 -18.3613 5.3
-2.65011 -6.79996 3.945
25.7144 -22.3768 1.6
15 2 -111.463 -94.3343 1.02421e-07 107.11 -131.576 97.4879 19.6777
Tx-D-DS-Rx 
12.0458 -18.3613 5.3
29.2863 -12.1959 2.89342
25.2686 -22.8794 1.3932
25.7144 -22.3768 1.6
16 4 -111.906 -13.7049 5.81516e-07 88.7835 83.7446 91.2165 87.5101
Tx-F-X-R-R-Rx 
12.0458 -18.3613 5.3
13.3901 12.5535 4.6429
13.6839 19.3105 4.49927
15.4083 58.9659 3.65639
34.1711 54.7739 3.24813
25.7144 -22.3768 1.6
17 2 -111.931 -120.456 1.04833e-07 135.455 -106.52 98.5925 19.6678
Tx-D-DS-Rx 
12.0458 -18.3613 5.3
29.2887 -12.1984 2.53314
25.4853 -23.1492 0.781492
25.7144 -22.3768 1.6
18 2 -112.108 -113.281 1.05899e-07 127.616 -91.0367 98.5014 19.658
Tx-D-DS-Rx 
12.0458 -18.3613 5.3
29.2912 -12.2008 2.56268
25.6957 -23.4111 0.802934
25.7144 -22.3768 1.6
19 1 -112.154 143.001 9.42645e-08 80.9196 68.8574 96.685 16.9116
Tx-DS-Rx 
12.0458 -18.3613 5.3
29.2955 -13.1166 3.18682
25.7144 -22.3768 1.6
20 1 -112.259 -115.206 1.091e-07 83.5024 139.107 96.4976 105.412
Tx-D-Rx 
12.0458 -18.3613 5.3
9.21332 -8.08665 4.08614
25.7144 -22.3768 1.6
21 2 -112.34 126.065 1.05347e-07 108.554 -88.3066 97.6903 19.658
Tx-D-DS-Rx 
12.0458 -18.3613 5.3
29.2912 -12.2008 2.82716
25.7468 -23.4748 1.23133
25.7144 -22.3768 1.6
22 2 -113.554 -102.705 1.4003e-07 86.6464 -159.15 97.3273 18.4477
Tx-D-R-Rx 
12.0458 -18.3613 5.3
29.0133 -12.7013 3
18.5513 -25.105 2.04915
25.7144 -22.3768 1.6
23 1 -114 56.7641 1.66636e-07 85.7511 91.3531 94.2489 58.1159
Tx-D-Rx 
12.0458 -18.3613 5.3
25.123 2.66112 3.46066
25.7144 -22.3768 1.6
24 2 -114.299 -90.7399 1.07704e-07 108.837 -77.4074 97.8887 19.6483
Tx-D-DS-Rx 
12.0458 -18.3613 5.3
29.2938 -12.2032 2.76236
26.0416 -23.8418 1.08794
25.7144 -22.3768 1.6
25 1 -115.543 -19.6443 1.09104e-07 83.5027 139.185 96.4973 105.573
Tx-D-Rx 
12.0458 -18.3613 5.3
9.18668 -8.10277 4.08714
25.7144 -22.3768 1.6
7 25
-88.6994 9.49727e-08 3.11313e-08
1 1 -83.8287 -173.701 9.0225e-08 82.1353 43.2003 97.8647 19.8125
Tx-D-Rx 
12.0458 -18.3613 5.3
29.2586 -12.1601 2.77273
23.0698 -17.9718 1.6
2 1 -89.8088 20.3483 9.02251e-08 82.1353 43.1772 97.8647 19.8018
Tx-D-Rx 
12.0458 -18.3613 5.3
29.2605 -12.163 2.77264
23.0698 -17.9718 1.6
3 1 -96.9709 -15.2394 8.68901e-08 80.1858 47.4384 97.4128 21.053
Tx-D-Rx 
12.0458 -18.3613 5.3
28.5439 -12.0107 3
23.0698 -17.9718 1.6
4 1 -99.4971 163.428 1.56446e-07 85.4738 156.522 94.5262 141.808
Tx-D-Rx 
12.0458 -18.3613 5.3
-2.65011 -6.79996 3.8198
23.0698 -17.9718 1.6
5 1 -99.7978 -9.97717 9.02253e-08 82.1353 43.2233 97.8647 19.8232
Tx-D-Rx 
12.0458 -18.3613 5.3
29.2568 -12.1571 2.77283
23.0698 -17.9718 1.6
6 1 -101.204 -84.3438 1.56449e-07 85.4739 156.602 94.5261 141.928
Tx-D-Rx 
12.0458 -18.3613 5.3
-2.67082 -6.83377 3.8202
23.0698 -17.9718 1.6
7 1 -101.427 -148.55 1.01552e-07 58.4366 35.373 84.3176 17.105
Tx-DS-Rx 
12.0458 -18.3613 5.3
30.5359 -12.6712 7.22496
23.0698 -17.9718 1.6
8 1 -103.473 148.55 9.77088e-08 72.9256 31.142 92.5888 15.2102
Tx-DS-Rx 
12.0458 -18.3613 5.3
30.9162 -13.2307 4.41583
23.0698 -17.9718 1.6
9 1 -103.591 -173.275 8.69575e-08 78.1412 47.5203 96.4556 21.0905
Tx-D-Rx 
12.0458 -18.3613 5.3
28.5372 -12.0009 3.3
23.0698 -17.9718 1.6
10 1 -104.339 -21.3705 9.02256e-08 82.1354 43.154 97.8646 19.7911
Tx-D-Rx 
12.0458 -18.3613 5.3
29.2623 -12.166 2.77254
23.0698 -17.9718 1.6
11 5 -109.153 108.373 4.29599e-07 88.3532 131.423 91.6468 123.409
Tx-F-X-F-X-R-Rx 
12.0458 -18.3613 5.3
-2.51609 3.71536 4.53966
-5.90409 8.85176 4.36276
-7.13183 10.7131 4.29865
-8.40445 12.6425 4.2322
-21.6218 32.6807 3.54206
23.0698 -17.9718 1.6
12 1 -109.48 114.733 8.75643e-08 78.672 38.8538 96.7091 17.2918
Tx-DS-Rx 
12.0458 -18.3613 5.3
29.2252 -13.0132 3.18344
23.0698 -17.9718 1.6
13 1 -109.949 -35.3341 9.02261e-08 82.1354 43.2462 97.8646 19.834
Tx-D-Rx 
12.0458 -18.3613 5.3
29.2551 -12.154 2.77294
23.0698 -17.9718 1.6
14 4 -111.649 103.666 5.67965e-07 88.7545 82.6979 91.2455 86.4634
Tx-F-X-R-R-Rx 
12.0458 -18.3613 5.3
13.9586 12.5891 4.62579
14.3712 19.2647 4.48037
16.8953 60.1052 3.59071
32.6619 56.8839 3.24083
23.0698 -17.9718 1.6
15 1 -112.725 -44.5479 9.02265e-08 82.1354 43.1308 97.8646 19.7805
Tx-D-Rx 
12.0458 -18.3613 5.3
29.2643 -12.1689 2.77245
23.0698 -17.9718 1.6
16 1 -113.615 -105.037 2.43633e-07 87.0953 171.448 92.9047 167.712
Tx-D-Rx 
12.0458 -18.3613 5.3
-18.3145 -11.7483 3.72342
23.0698 -17.9718 1.6
17 1 -114.135 -129.307 2.13267e-07 86.6813 151.942 93.3187 140.306
Tx-D-Rx 
12.0458 -18.3613 5.3
-9.04773 -0.853015 3.71041
23.0698 -17.9718 1.6
18 1 -114.566 113.905 8.81868e-08 79.5616 33.7744 97.0398 15.1845
Tx-DS-Rx 
12.0458 -18.3613 5.3
29.6186 -13.592 3.05142
23.0698 -17.9718 1.6
19 1 -114.646 -22.2599 1.30546e-07 84.5734 63.877 95.4266 39.0301
Tx-D-Rx 
12.0458 -18.3613 5.3
30.0271 -3.78468 3.10106
23.0698 -17.9718 1.6
20 1 -115.261 -11.297 2.43637e-07 87.0954 171.421 92.9046 167.675
Tx-D-Rx 
12.0458 -18.3613 5.3
-18.3115 -11.7287 3.72338
23.0698 -17.9718 1.6
21 1 -116.412 -61.0659 9.02272e-08 82.1355 43.269 97.8645 19.8448
Tx-D-Rx 
12.0458 -18.3613 5.3
29.2534 -12.151 2.77304
23.0698 -17.9718 1.6
22 1 -116.417 176.608 2.13278e-07 86.6815 151.88 93.3185 140.224
Tx-D-Rx 
12.0458 -18.3613 5.3
-9.02703 -0.819203 3.71017
23.0698 -17.9718 1.6
23 7 -117.718 -42.7225 4.48642e-07 79.2794 70.3855 83.1124 61.6344
Tx-F-X-F-X-DS-F-X-Rx 
12.0458 -18.3613 5.3
19.1975 -5.11551 7.11833
20.4062 -2.87683 7.42565
22.3347 0.695098 7.91599
25.4484 6.46196 8.70765
44.0648 40.9418 13.4409
33.6205 11.6343 7.55046
31.2827 5.07427 6.23198
23.0698 -17.9718 1.6
24 2 -118.046 -134.464 1.18142e-07 97.3792 -76.3122 98.225 19.6977
Tx-D-DS-Rx 
12.0458 -18.3613 5.3
29.2815 -12.1908 2.65376
24.2485 -22.8115 0.954906
23.0698 -17.9718 1.6
25 1 -118.057 66.7501 9.31787e-08 82.3861 144.496 97.6139 105.412
Tx-D-Rx 
12.0458 -18.3613 5.3
9.21332 -8.08665 3.8753
23.0698 -17.9718 1.6
8 25
-76.3693 5.66002e-08 2.0287e-08
1 2 -74.9577 135.709 5.0748e-08 75.9199 -166.113 104.08 13.8867
Tx-F-X-Rx 
12.0458 -18.3613 5.3
17.751 -16.9508 3.82596
19.2586 -16.5781 3.43645
26.3666 -14.8208 1.6
2 1 -81.6691 -49.8993 7.51812e-08 80.5484 42.6148 99.4516 19.8125
Tx-D-Rx 
12.0458 -18.3613 5.3
29.2586 -12.1601 2.25421
26.3666 -14.8208 1.6
3 1 -92.3873 136.742 7.51814e-08 80.5484 42.5648 99.4516 19.8018
Tx-D-Rx 
12.0458 -18.3613 5.3
29.2605 -12.163 2.2541
26.3666 -14.8208 1.6
4 1 -92.8587 134.91 7.51815e-08 80.5484 42.6646 99.4516 19.8232
Tx-D-Rx 
12.0458 -18.3613 5.3
29.2568 -12.1571 2.25433
26.3666 -14.8208 1.6
5 1 -100.633 63.681 8.72653e-08 44.822 29.7195 87.0323 17.675
Tx-DS-Rx 
12.0458 -18.3613 5.3
30.423 -12.5052 6.29992
26.3666 -14.8208 1.6
6 3 -102.244 -92.8791 8.4952e-08 56.9622 17.9473 91.5947 14.8912
Tx-F-X-DS-Rx 
12.0458 -18.3613 5.3
18.6912 -16.5942 5.10856
18.8655 -16.5478 5.10354
30.9811 -13.3261 4.75453
26.3666 -14.8208 1.6
7 1 -103.446 102.03 7.5182e-08 80.5485 42.5147 99.4515 19.7911
Tx-D-Rx 
12.0458 -18.3613 5.3
29.2623 -12.166 2.25399
26.3666 -14.8208 1.6
8 1 -103.781 101.12 7.51821e-08 80.5485 42.7142 99.4515 19.834
Tx-D-Rx 
12.0458 -18.3613 5.3
29.2551 -12.154 2.25445
26.3666 -14.8208 1.6
9 1 -103.88 97.6351 7.32373e-08 64.9506 33.3661 96.7267 17.4826
Tx-DS-Rx 
12.0458 -18.3613 5.3
29.1901 -12.9614 3.17999
26.3666 -14.8208 1.6
10 1 -106.042 -84.7834 9.7833e-08 82.7503 158.566 97.2497 105.412
Tx-D-Rx 
12.0458 -18.3613 5.3
9.21332 -8.08665 3.9442
26.3666 -14.8208 1.6
11 2 -107.042 -121.57 4.86974e-07 88.5473 -146.331 91.4527 32.7231
Tx-R-R-Rx 
12.0458 -18.3613 5.3
68.8388 18.1316 3.588
16.105 -21.6565 1.91269
26.3666 -14.8208 1.6
12 1 -108.364 33.6239 1.16689e-07 83.9266 71.6503 96.0734 39.0301
Tx-D-Rx 
12.0458 -18.3613 5.3
30.0271 -3.78468 2.83713
26.3666 -14.8208 1.6
13 1 -108.51 53.0642 9.78351e-08 82.7505 158.486 97.2495 105.276
Tx-D-Rx 
12.0458 -18.3613 5.3
9.23434 -8.06731 3.94257
26.3666 -14.8208 1.6
14 1 -108.989 -90.1811 7.36641e-08 67.1624 24.1274 97.0831 15.8149
Tx-DS-Rx 
12.0458 -18.3613 5.3
29.5 -13.4174 3.04586
26.3666 -14.8208 1.6
15 1 -109.699 18.2655 7.22106e-08 68.1751 48.9737 97.3926 20.3956
Tx-D-Rx 
12.0458 -18.3613 5.3
28.6613 -12.1835 3
26.3666 -14.8208 1.6
16 1 -110.659 76.1162 7.5183e-08 80.5486 42.4644 99.4514 19.7805
Tx-D-Rx 
12.0458 -18.3613 5.3
29.2643 -12.1689 2.25389
26.3666 -14.8208 1.6
17 1 -110.678 -17.3257 7.24953e-08 64.111 49.3945 96.4394 20.4792
Tx-D-Rx 
12.0458 -18.3613 5.3
28.6464 -12.1615 3.3
26.3666 -14.8208 1.6
18 1 -110.885 75.0561 7.51831e-08 80.5486 42.7635 99.4514 19.8448
Tx-D-Rx 
12.0458 -18.3613 5.3
29.2534 -12.151 2.25458
26.3666 -14.8208 1.6
19 4 -111.428 23.3886 5.56223e-07 88.7282 83.6845 91.2718 87.45
Tx-F-X-R-R-Rx 
12.0458 -18.3613 5.3
13.4227 12.5556 4.61292
13.7234 19.3078 4.46286
15.4925 59.0304 3.5801
34.0827 54.8975 3.15729
26.3666 -14.8208 1.6
20 1 -111.787 -119.681 1.16705e-07 83.9275 71.4598 96.0725 38.9379
Tx-D-Rx 
12.0458 -18.3613 5.3
30.061 -3.80515 2.83604
26.3666 -14.8208 1.6
21 1 -112.781 -99.9795 1.41627e-07 84.9991 93.9727 95.0009 58.0471
Tx-D-Rx 
12.0458 -18.3613 5.3
25.1531 2.65323 3.13275
26.3666 -14.8208 1.6
22 3 -113.888 105.917 6.09244e-07 88.8389 -158.95 91.1611 48.3424
Tx-R-R-R-Rx 
12.0458 -18.3613 5.3
67.869 44.3866 3.59775
69.1592 44.9613 3.56912
14.4966 -19.3892 1.85779
26.3666 -14.8208 1.6
23 4 -114.657 169.26 5.22659e-07 88.6465 81.7914 91.3535 82.8293
Tx-F-X-D-R-Rx 
12.0458 -18.3613 5.3
16.0847 13.742 4.53549
16.5521 17.4571 4.44702
21.2688 54.9473 3.55422
36.0309 52.1737 3.19932
26.3666 -14.8208 1.6
24 1 -115.034 35.9841 1.63311e-07 85.6644 164.548 94.3356 141.808
Tx-D-Rx 
12.0458 -18.3613 5.3
-2.65011 -6.79996 3.88238
26.3666 -14.8208 1.6
25 1 -115.062 25.7373 1.41629e-07 84.9992 94.0691 95.0008 58.1159
Tx-D-Rx 
12.0458 -18.3613 5.3
25.123 2.66112 3.13359
26.3666 -14.8208 1.6
9 25
-73.0719 5.43543e-08 4.04942e-08
1 0 -72.2207 -136.295 4.83261e-08 75.1986 -149.49 104.801 30.51
Tx-Rx 
12.0458 -18.3613 5.3
24.1095 -11.2524 1.6
2 1 -82.3184 -29.0366 7.93299e-08 81.0468 -9.12132 98.9532 20.0942
Tx-D-Rx 
12.0458 -18.3613 5.3
29.2305 -12.0746 2.41713
24.1095 -11.2524 1.6
3 1 -89.9051 164.679 7.933e-08 81.0469 -9.1586 98.9531 20.0836
Tx-D-Rx 
12.0458 -18.3613 5.3
29.2308 -12.078 2.41727
24.1095 -11.2524 1.6
4 1 -96.6806 142.281 7.93302e-08 81.0469 -9.08386 98.9531 20.1047
Tx-D-Rx 
12.0458 -18.3613 5.3
29.2302 -12.0711 2.41699
24.1095 -11.2524 1.6
5 3 -98.8897 162.266 4.04493e-07 88.251 134.045 91.749 120.871
Tx-F-X-R-Rx 
12.0458 -18.3613 5.3
-1.82256 4.83778 4.47466
-4.22864 8.86269 4.33147
-18.6028 32.9079 3.47603
24.1095 -11.2524 1.6
6 1 -102.373 141.383 9.26217e-08 52.1007 -11.5424 86.0312 17.529
Tx-DS-Rx 
12.0458 -18.3613 5.3
30.4519 -12.5476 6.63918
24.1095 -11.2524 1.6
7 1 -102.746 125.78 7.93305e-08 81.0469 -9.19569 98.9531 20.0729
Tx-D-Rx 
12.0458 -18.3613 5.3
29.2312 -12.0815 2.41741
24.1095 -11.2524 1.6
8 4 -105.756 -25.6792 4.04493e-07 88.251 134.078 91.749 120.899
Tx-F-X-R-D-Rx 
12.0458 -18.3613 5.3
-1.83971 4.84089 4.47431
-4.23231 8.83885 4.33204
-18.626 32.8901 3.47614
-14.3762 28.492 3.28938
24.1095 -11.2524 1.6
9 1 -105.873 -65.1837 1.83859e-07 86.1498 65.2839 93.8502 51.5836
Tx-D-Rx 
12.0458 -18.3613 5.3
32.998 8.05826 3.03068
24.1095 -11.2524 1.6
10 2 -105.917 57.3147 8.81188e-07 89.1972 -151.936 90.8028 -152.331
Tx-R-R-Rx 
12.0458 -18.3613 5.3
-98.3102 -76.2236 3.55405
-98.5332 -76.6396 3.54743
24.1095 -11.2524 1.6
11 2 -105.923 8.03924 8.81173e-07 89.1972 -152.31 90.8028 -151.915
Tx-R-R-Rx 
12.0458 -18.3613 5.3
-98.0586 -77.1153 3.55129
-96.7514 -74.6789 3.51255
24.1095 -11.2524 1.6
12 3 -106.014 -10.1226 9.18893e-08 65.4966 -16.8211 91.2467 14.8758
Tx-F-X-DS-Rx 
12.0458 -18.3613 5.3
18.6717 -16.6013 5.1508
18.8712 -16.5483 5.14631
30.9843 -13.3307 4.87356
24.1095 -11.2524 1.6
13 3 -106.09 -170.281 8.81584e-07 89.1976 -152.561 90.8024 -139.767
Tx-R-R-R-Rx 
12.0458 -18.3613 5.3
7.92706 -21.846 5.22444
-97.6071 -77.5678 3.553
-95.321 -73.2616 3.48471
24.1095 -11.2524 1.6
14 1 -106.479 -164.896 8.81188e-07 89.1972 -151.99 90.8028 -152.27
Tx-D-Rx 
12.0458 -18.3613 5.3
-98.6311 -76.5415 3.548
24.1095 -11.2524 1.6
15 1 -106.846 140.862 9.4799e-08 62.793 1.77812 90.3344 21.0567
Tx-DS-Rx 
12.0458 -18.3613 5.3
31.072 -11.0362 5.18102
24.1095 -11.2524 1.6
16 1 -106.874 114.045 7.93308e-08 81.0469 -9.04623 98.9531 20.1152
Tx-D-Rx 
12.0458 -18.3613 5.3
29.23 -12.0676 2.41686
24.1095 -11.2524 1.6
17 1 -108.506 105.34 7.82979e-08 73.0486 -16.9379 96.7695 18.2388
Tx-DS-Rx 
12.0458 -18.3613 5.3
29.0514 -12.7574 3.1746
24.1095 -11.2524 1.6
18 3 -108.558 86.4971 4.88397e-07 88.5515 -140.129 91.4485 31.7573
Tx-R-R-R-Rx 
12.0458 -18.3613 5.3
69.4905 17.1967 3.59166
49.6233 1.67439 2.95414
14.4486 -19.3217 1.91829
24.1095 -11.2524 1.6
19 1 -108.773 87.1414 1.8386e-07 86.1498 65.436 93.8502 51.6795
Tx-D-Rx 
12.0458 -18.3613 5.3
32.9496 8.08806 3.03114
24.1095 -11.2524 1.6
20 1 -109.439 -7.10399 1.39301e-07 78.3276 18.3828 91.8574 24.5349
Tx-DS-Rx 
12.0458 -18.3613 5.3
37.0166 -6.96304 4.40983
24.1095 -11.2524 1.6
21 1 -110.706 100.768 7.93314e-08 81.047 -9.23257 98.953 20.0623
Tx-D-Rx 
12.0458 -18.3613 5.3
29.2317 -12.085 2.41756
24.1095 -11.2524 1.6
22 4 -111.211 -129.966 5.45291e-07 88.7027 82.76 91.2973 86.5255
Tx-F-X-R-R-Rx 
12.0458 -18.3613 5.3
13.9248 12.587 4.59783
14.3304 19.2674 4.44627
16.8057 60.0366 3.52128
32.7498 56.761 3.15266
24.1095 -11.2524 1.6
23 2 -111.773 33.2347 8.65856e-07 89.183 160.54 90.817 146.564
Tx-R-R-Rx 
12.0458 -18.3613 5.3
-90.2647 49.1923 3.55171
-81.8253 26.1778 3.20216
24.1095 -11.2524 1.6
24 2 -112.36 73.7798 4.05002e-07 88.2532 31.0867 91.7468 29.8412
Tx-D-R-Rx 
12.0458 -18.3613 5.3
63.2656 11.0214 3.49914
70.0244 16.4307 3.23512
24.1095 -11.2524 1.6
25 1 -112.49 58.2201 1.09726e-07 83.5397 51.6058 96.4603 39.0301
Tx-D-Rx 
12.0458 -18.3613 5.3
30.0271 -3.78468 2.67891
24.1095 -11.2524 1.6
10 25
-75.8761 6.89359e-08 2.5117e-08
1 0 -74.5961 -150.857 6.49763e-08 79.0469 -146.599 100.953 33.4014
Tx-Rx 
12.0458 -18.3613 5.3
28.0064 -7.83661 1.6
2 1 -81.6264 -48.7374 7.66388e-08 80.7297 -73.2286 99.2703 20.3899
Tx-D-Rx 
12.0458 -18.3613 5.3
29.251 -11.9662 2.30399
28.0064 -7.83661 1.6
3 1 -89.1892 147.697 7.66389e-08 80.7297 -73.2602 99.2703 20.3824
Tx-D-Rx 
12.0458 -18.3613 5.3
29.2494 -11.9693 2.30441
28.0064 -7.83661 1.6
4 1 -96.1206 124.21 7.6639e-08 80.7298 -73.1964 99.2702 20.3973
Tx-D-Rx 
12.0458 -18.3613 5.3
29.2526 -11.9631 2.30358
28.0064 -7.83661 1.6
5 2 -101.286 112.54 3.88009e-07 88.1766 30.4731 91.8234 29.5492
Tx-R-R-Rx 
12.0458 -18.3613 5.3
60.3408 9.01752 3.53267
69.7987 16.7545 3.14367
28.0064 -7.83661 1.6
6 1 -101.696 110.272 7.66392e-08 80.7298 -73.2911 99.2702 20.3748
Tx-D-Rx 
12.0458 -18.3613 5.3
29.248 -11.9725 2.30483
28.0064 -7.83661 1.6
7 1 -102.823 42.2118 8.79404e-08 55.0094 -42.8689 91.5612 21.2273
Tx-DS-Rx 
12.0458 -18.3613 5.3
31.2914 -10.8859 4.73729
28.0064 -7.83661 1.6
8 1 -104.21 64.9798 1.2296e-07 74.8655 4.67618 92.7728 24.4356
Tx-DS-Rx 
12.0458 -18.3613 5.3
36.7903 -7.11812 3.98367
28.0064 -7.83661 1.6
9 1 -104.365 179.393 9.90208e-08 82.8377 -179.296 97.1623 105.276
Tx-D-Rx 
12.0458 -18.3613 5.3
9.23434 -8.06731 3.95908
28.0064 -7.83661 1.6
10 1 -106.146 99.6329 7.66395e-08 80.7298 -73.1636 99.2702 20.4045
Tx-D-Rx 
12.0458 -18.3613 5.3
29.2542 -11.96 2.30317
28.0064 -7.83661 1.6
11 1 -106.664 -35.0569 9.90224e-08 82.8379 -179.365 97.1621 105.155
Tx-D-Rx 
12.0458 -18.3613 5.3
9.25132 -8.04432 3.95688
28.0064 -7.83661 1.6
12 4 -106.794 -64.3525 4.2519e-07 88.3361 142.652 91.6639 139.2
Tx-R-F-X-R-Rx 
12.0458 -18.3613 5.3
-11.2985 1.78912 4.4042
-19.0183 20.7251 3.81019
-20.4109 24.141 3.70303
-23.3526 31.3567 3.47668
28.0064 -7.83661 1.6
13 1 -107.803 -30.172 9.31663e-08 82.3851 63.4951 97.6149 39.0301
Tx-D-Rx 
12.0458 -18.3613 5.3
30.0271 -3.78468 2.20534
28.0064 -7.83661 1.6
14 3 -108.933 150.15 5.05678e-07 88.601 -140.083 91.399 31.7106
Tx-R-R-R-Rx 
12.0458 -18.3613 5.3
69.522 17.1515 3.65001
50.6079 2.34902 3.06345
14.3854 -19.2326 2.03372
28.0064 -7.83661 1.6
15 1 -109.754 72.8115 1.01461e-07 44.7237 -21.5166 85.8717 22.3687
Tx-DS-Rx 
12.0458 -18.3613 5.3
32.9164 -9.77235 6.92896
28.0064 -7.83661 1.6
16 1 -109.761 90.0875 7.66399e-08 80.7299 -73.3214 99.2701 20.367
Tx-D-Rx 
12.0458 -18.3613 5.3
29.2465 -11.9757 2.30525
28.0064 -7.83661 1.6
17 1 -110.456 6.91012 7.85201e-08 67.4828 -59.1495 96.4845 22.5622
Tx-DS-Rx 
12.0458 -18.3613 5.3
29.8696 -10.9558 3.10621
28.0064 -7.83661 1.6
18 4 -110.958 76.2323 5.32472e-07 88.6714 83.9939 91.3286 87.7594
Tx-F-X-R-R-Rx 
12.0458 -18.3613 5.3
13.255 12.5451 4.58267
13.5201 19.3214 4.42539
15.0608 58.6997 3.51142
34.5396 54.2587 3.04807
28.0064 -7.83661 1.6
19 1 -112.78 87.4768 8.49354e-08 67.4878 -34.1133 95.6887 23.4868
Tx-DS-Rx 
12.0458 -18.3613 5.3
31.2343 -10.0231 3.21588
28.0064 -7.83661 1.6
20 1 -112.822 79.9144 7.66403e-08 80.7299 -73.1302 99.2701 20.4115
Tx-D-Rx 
12.0458 -18.3613 5.3
29.2559 -11.957 2.30277
28.0064 -7.83661 1.6
21 4 -112.958 116.176 4.2519e-07 88.3361 142.651 91.6639 139.201
Tx-D-F-X-R-Rx 
12.0458 -18.3613 5.3
-11.2966 1.7864 4.4043
-19.0176 20.7249 3.8102
-20.4103 24.1411 3.70304
-23.3522 31.357 3.47668
28.0064 -7.83661 1.6
22 4 -113.381 113.235 4.2519e-07 88.3361 142.66 91.6639 139.175
Tx-D-F-X-R-Rx 
12.0458 -18.3613 5.3
-11.3315 1.83496 4.40261
-19.0313 20.7295 3.80993
-20.4209 24.1393 3.70297
-23.3599 31.3511 3.47675
28.0064 -7.83661 1.6
23 1 -114.097 -155.338 9.40396e-08 83.5167 63.1793 97.8333 38.9718
Tx-DS-Rx 
12.0458 -18.3613 5.3
30.0485 -3.79762 2.11432
28.0064 -7.83661 1.6
24 3 -114.15 43.9876 5.14649e-07 88.6254 -73.436 91.3746 33.0149
Tx-R-R-D-Rx 
12.0458 -18.3613 5.3
68.6421 18.4138 3.68041
15.7112 -21.1015 2.09538
29.2414 -11.9886 1.70394
28.0064 -7.83661 1.6
25 1 -114.356 -38.9096 9.40426e-08 83.4997 63.6583 97.8302 39.0661
Tx-DS-Rx 
12.0458 -18.3613 5.3
30.0185 -3.77291 2.11667
28.0064 -7.83661 1.6
11 25
-77.2462 8.83531e-08 4.55952e-08
1 0 -76.5684 -170.365 8.20726e-08 81.3484 -146.352 98.6516 33.6481
Tx-Rx 
12.0458 -18.3613 5.3
32.2885 -4.88755 1.6
2 1 -83.1417 -176.106 8.77904e-08 81.9158 -113.104 98.0842 20.5074
Tx-D-Rx 
12.0458 -18.3613 5.3
29.2924 -11.9105 2.68453
32.2885 -4.88755 1.6
3 1 -88.5173 21.3383 8.77905e-08 81.9158 -113.114 98.0842 20.5031
Tx-D-Rx 
12.0458 -18.3613 5.3
29.2899 -11.9129 2.68498
32.2885 -4.88755 1.6
4 1 -98.9382 166.773 1.11027e-07 76.0784 -25.7123 95.1319 24.4594
Tx-DS-Rx 
12.0458 -18.3613 5.3
36.8441 -7.08122 2.85332
32.2885 -4.88755 1.6
5 1 -99.9431 -11.337 8.77906e-08 81.9158 -113.093 98.0842 20.5115
Tx-D-Rx 
12.0458 -18.3613 5.3
29.295 -11.9081 2.68407
32.2885 -4.88755 1.6
6 2 -100.852 -45.2125 3.70715e-07 88.0915 30.2822 91.9085 29.3583
Tx-R-R-Rx 
12.0458 -18.3613 5.3
58.6097 7.83145 3.5198
69.6692 16.9403 3.04238
32.2885 -4.88755 1.6
7 3 -102.168 1.55611 4.09645e-07 88.273 138.862 91.727 116.054
Tx-F-X-R-Rx 
12.0458 -18.3613 5.3
0.548059 5.15608 4.5107
-2.47879 11.3472 4.30292
-14.5413 36.0197 3.47485
32.2885 -4.88755 1.6
8 1 -103.289 -17.7144 8.77906e-08 81.9158 -113.124 98.0842 20.4986
Tx-D-Rx 
12.0458 -18.3613 5.3
29.2875 -11.9154 2.68544
32.2885 -4.88755 1.6
9 1 -103.724 -98.2987 8.63966e-08 81.7844 153.821 98.2156 38.8688
Tx-D-Rx 
12.0458 -18.3613 5.3
30.0984 -3.81088 1.95235
32.2885 -4.88755 1.6
10 1 -104.463 86.6375 9.30713e-08 60.504 -96.7991 91.0981 21.4589
Tx-DS-Rx 
12.0458 -18.3613 5.3
31.5985 -10.6755 4.89731
32.2885 -4.88755 1.6
11 3 -106.756 -40.6388 3.78061e-07 88.1286 90.1321 91.8714 71.9458
Tx-F-X-D-Rx 
12.0458 -18.3613 5.3
23.8207 17.7617 4.05863
24.343 19.3641 4.00356
32.1772 43.3978 3.17764
32.2885 -4.88755 1.6
12 3 -107.455 126.638 3.78062e-07 88.1286 90.1553 91.8714 71.963
Tx-F-X-D-Rx 
12.0458 -18.3613 5.3
23.811 17.7688 4.05851
24.3274 19.3547 4.00401
32.1576 43.4009 3.17774
32.2885 -4.88755 1.6
13 1 -107.561 -113.702 1.07025e-07 83.3759 171.904 96.6241 72.4502
Tx-D-Rx 
12.0458 -18.3613 5.3
16.9949 -2.7121 3.39393
32.2885 -4.88755 1.6
14 3 -108.831 -42.4535 6.79578e-07 88.9591 179.784 91.0409 -136.588
Tx-R-D-R-Rx 
12.0458 -18.3613 5.3
9.44867 -20.8183 5.23504
-52.7861 -49.3834 3.99081
-54.4384 -4.56094 3.17583
32.2885 -4.88755 1.6
15 1 -109.074 166.914 9.99604e-08 43.7944 -82.0451 86.4386 22.4007
Tx-DS-Rx 
12.0458 -18.3613 5.3
32.9664 -9.73816 6.70831
32.2885 -4.88755 1.6
16 3 -109.169 -44.7759 6.79578e-07 88.9591 179.791 91.0409 -136.575
Tx-R-D-R-Rx 
12.0458 -18.3613 5.3
9.45264 -20.8156 5.23512
-52.8023 -49.3735 3.99062
-54.4484 -4.57129 3.17602
32.2885 -4.88755 1.6
17 3 -109.233 73.1758 5.22948e-07 88.6472 -140.26 91.3528 31.8883
Tx-R-R-R-Rx 
12.0458 -18.3613 5.3
69.402 17.3236 3.70479
46.7175 -0.316495 3.0262
14.6261 -19.5718 2.14242
32.2885 -4.88755 1.6
18 4 -109.452 80.7732 4.43531e-07 88.4049 -112.572 91.5951 119.328
Tx-F-X-R-D-Rx 
12.0458 -18.3613 5.3
-0.893131 4.66879 4.56442
-3.89465 10.0112 4.39378
-17.3136 33.8957 3.63091
29.3902 -11.86 1.81026
32.2885 -4.88755 1.6
19 3 -109.702 55.167 6.72981e-07 88.9488 179.392 91.0512 -136.242
Tx-R-D-R-Rx 
12.0458 -18.3613 5.3
9.55443 -20.7469 5.23671
-51.9217 -48.5163 3.999
-53.8693 -3.97278 3.18093
32.2885 -4.88755 1.6
20 1 -110.017 -27.5372 8.77909e-08 81.9158 -113.082 98.0842 20.5155
Tx-D-Rx 
12.0458 -18.3613 5.3
29.2976 -11.9058 2.68362
32.2885 -4.88755 1.6
21 1 -110.031 14.95 1.07027e-07 83.376 171.977 96.624 72.5221
Tx-D-Rx 
12.0458 -18.3613 5.3
16.9683 -2.72821 3.39669
32.2885 -4.88755 1.6
22 3 -110.475 -63.5803 6.86446e-07 88.9695 -179.803 91.0305 -136.914
Tx-R-D-R-Rx 
12.0458 -18.3613 5.3
9.34137 -20.8908 5.23339
-53.7081 -50.2659 3.9822
-55.0447 -5.18768 3.17097
32.2885 -4.88755 1.6
23 3 -110.952 112.974 6.86446e-07 88.9695 -179.796 91.0305 -136.902
Tx-R-D-R-Rx 
12.0458 -18.3613 5.3
9.34557 -20.888 5.23348
-53.7242 -50.256 3.98201
-55.0548 -5.19816 3.17115
32.2885 -4.88755 1.6
24 1 -111.847 94.391 8.64131e-08 81.786 153.25 98.214 38.8284
Tx-D-Rx 
12.0458 -18.3613 5.3
30.1353 -3.8022 1.94808
32.2885 -4.88755 1.6
25 3 -112.07 33.4786 9.15225e-07 89.2583 -151.927 90.7769 -151.531
Tx-R-R-D-Rx 
12.0458 -18.3613 5.3
-97.4435 -77.7318 3.61113
-94.6371 -72.5839 3.53163
5.02713 -19.4275 2
32.2885 -4.88755 1.6
12 25
-79.5171 1.07287e-07 5.77389e-08
1 0 -78.2206 99.8183 9.92579e-08 82.8549 -146.472 97.1451 33.5275
Tx-Rx 
12.0458 -18.3613 5.3
36.651 -2.05842 1.6
2 1 -98.7017 -128.664 1.1958e-07 73.418 -54.204 94.6391 25.3786
Tx-DS-Rx 
12.0458 -18.3613 5.3
39.1392 -5.50879 2.86669
36.651 -2.05842 1.6
3 1 -100.359 -55.7183 1.02358e-07 83.0724 -129.694 96.9276 21.442
Tx-D-Rx 
12.0458 -18.3613 5.3
28.4747 -11.909 3.15543
36.651 -2.05842 1.6
4 2 -100.391 -20.03 3.53396e-07 87.998 30.1505 92.002 29.2266
Tx-R-R-Rx 
12.0458 -18.3613 5.3
57.49 7.06431 3.47971
69.5798 17.0685 2.93116
36.651 -2.05842 1.6
5 3 -101.764 137.1 4.14731e-07 88.2941 141.169 91.7059 113.747
Tx-F-X-R-Rx 
12.0458 -18.3613 5.3
1.4574 5.70567 4.51695
-1.16829 11.6737 4.32277
-12.5505 37.545 3.48101
36.651 -2.05842 1.6
6 2 -105.082 -33.8012 5.42036e-07 88.6949 110.133 91.3051 62.5086
Tx-D-R-Rx 
12.0458 -18.3613 5.3
41.8847 38.9799 3.82732
14.527 58.2907 3.0644
36.651 -2.05842 1.6
7 2 -106.854 0.534348 9.32511e-07 89.2414 -151.836 90.7586 -151.44
Tx-R-R-Rx 
12.0458 -18.3613 5.3
-97.2981 -77.8775 3.65166
-94.1219 -72.0734 3.56405
36.651 -2.05842 1.6
8 1 -107.942 -57.0249 1.00746e-07 82.9611 -165.017 97.0389 38.8284
Tx-D-Rx 
12.0458 -18.3613 5.3
30.1353 -3.8022 2.43284
36.651 -2.05842 1.6
9 1 -108.572 -43.4214 2.95259e-07 87.6036 68.0205 92.3964 51.1534
Tx-D-Rx 
12.0458 -18.3613 5.3
48.1796 26.5053 2.88909
36.651 -2.05842 1.6
10 3 -109.514 177.211 5.40176e-07 88.6904 -140.478 91.3096 32.1055
Tx-R-R-R-Rx 
12.0458 -18.3613 5.3
69.2554 17.5339 3.75599
41.3828 -3.97157 2.95117
14.9201 -19.9863 2.24404
36.651 -2.05842 1.6
11 1 -109.527 -39.2724 1.06084e-07 69.8547 -120.678 89.9868 21.3842
Tx-DS-Rx 
12.0458 -18.3613 5.3
31.4983 -10.7441 5.30481
36.651 -2.05842 1.6
12 1 -109.833 65.9639 2.95262e-07 87.6036 68.0932 92.3964 51.1924
Tx-D-Rx 
12.0458 -18.3613 5.3
48.1457 26.5258 2.88934
36.651 -2.05842 1.6
13 2 -110.33 31.5739 5.31153e-07 88.6681 111.64 91.3319 63.649
Tx-D-R-Rx 
12.0458 -18.3613 5.3
39.676 37.4192 3.85273
13.1321 57.2219 3.08277
36.651 -2.05842 1.6
14 2 -111.075 -166.351 5.31153e-07 88.6681 111.655 91.3319 63.6254
Tx-D-R-Rx 
12.0458 -18.3613 5.3
39.6855 37.3804 3.85344
13.1183 57.2114 3.08266
36.651 -2.05842 1.6
15 4 -111.478 85.4844 4.41971e-07 88.3993 -71.2738 91.6007 114.808
Tx-F-X-R-R-Rx 
12.0458 -18.3613 5.3
1.04299 5.44196 4.5672
-1.84451 11.6887 4.37489
-13.4704 36.8401 3.6006
38.0692 -6.24187 1.72344
36.651 -2.05842 1.6
16 1 -111.673 -81.444 1.2465e-07 84.3159 157.608 95.6841 57.9386
Tx-D-Rx 
12.0458 -18.3613 5.3
25.2099 2.65548 2.83165
36.651 -2.05842 1.6
17 1 -111.687 31.8742 1.1075e-07 56.0881 -116.181 84.5999 22.3123
Tx-DS-Rx 
12.0458 -18.3613 5.3
32.829 -9.83225 7.42361
36.651 -2.05842 1.6
18 2 -112.362 16.2648 1.23326e-07 77.0074 -62.1574 94.8482 38.8688
Tx-D-DS-Rx 
12.0458 -18.3613 5.3
30.0984 -3.81088 3.33331
38.6504 -5.84368 2.58772
36.651 -2.05842 1.6
19 2 -113.167 -90.0763 6.8691e-07 88.9702 -179.389 91.0298 -154.76
Tx-D-R-Rx 
12.0458 -18.3613 5.3
-51.9217 -48.5163 4.02876
-52.9418 -3.01401 3.21061
36.651 -2.05842 1.6
20 2 -113.528 -166.936 1.2379e-07 77.1353 -57.9379 94.8438 38.8284
Tx-D-DS-Rx 
12.0458 -18.3613 5.3
30.1353 -3.8022 3.33225
38.9104 -5.6655 2.57205
36.651 -2.05842 1.6
21 2 -113.83 170.413 6.93593e-07 88.9801 -179.017 91.0199 -154.429
Tx-D-R-Rx 
12.0458 -18.3613 5.3
-52.7861 -49.3834 4.02049
-53.5147 -3.60623 3.20543
36.651 -2.05842 1.6
22 2 -114.324 148.645 3.03386e-07 87.6678 -170.033 92.3322 142.191
Tx-D-R-Rx 
12.0458 -18.3613 5.3
-2.7773 -6.8598 4.53588
-18.3143 -11.7174 3.87289
36.651 -2.05842 1.6
23 2 -114.357 -15.9346 6.93594e-07 88.9801 -179.01 91.0199 -154.442
Tx-D-R-Rx 
12.0458 -18.3613 5.3
-52.8023 -49.3735 4.02031
-53.5251 -3.61701 3.20562
36.651 -2.05842 1.6
24 1 -114.499 79.8652 1.72418e-07 53.5698 7.4951 85.1607 27.3292
Tx-DS-Rx 
12.0458 -18.3613 5.3
45.9633 -0.833258 8.53235
36.651 -2.05842 1.6
25 1 -114.759 25.377 1.24654e-07 84.316 157.512 95.684 57.8937
Tx-D-Rx 
12.0458 -18.3613 5.3
25.2392 2.66573 2.8293
36.651 -2.05842 1.6
13 25
-79.7306 1.22319e-07 4.27818e-08
1 0 -79.6381 131.085 1.16489e-07 83.9162 -146.666 96.0838 33.3342
Tx-Rx 
12.0458 -18.3613 5.3
41.0491 0.715108 1.6
2 1 -80.5836 49.8768 1.18971e-07 84.0436 -133.821 95.9564 22.5176
Tx-R-Rx 
12.0458 -18.3613 5.3
29.809 -10.9971 3.2937
41.0491 0.715108 1.6
3 1 -86.9072 -132.46 1.18971e-07 84.0259 -133.83 95.9415 22.5101
Tx-D-Rx 
12.0458 -18.3613 5.3
29.799 -11.004 3.3
41.0491 0.715108 1.6
4 1 -98.2169 -82.7675 1.18984e-07 84.9001 -133.403 96.6338 22.8492
Tx-D-Rx 
12.0458 -18.3613 5.3
30.27 -10.6821 3
41.0491 0.715108 1.6
5 1 -99.8304 -117.127 1.34803e-07 65.7288 -69.1968 93.0572 26.4654
Tx-DS-Rx 
12.0458 -18.3613 5.3
42.5309 -3.18497 3.48124
41.0491 0.715108 1.6
6 2 -99.9056 148.305 3.3607e-07 87.8947 30.0427 92.1053 29.1188
Tx-R-R-Rx 
12.0458 -18.3613 5.3
56.6152 6.46491 3.42456
69.5067 17.1734 2.80848
41.0491 0.715108 1.6
7 3 -100.047 -155.879 4.20678e-07 88.3183 143.405 91.6817 111.511
Tx-F-X-R-Rx 
12.0458 -18.3613 5.3
2.16955 6.6973 4.50919
0.25685 11.5503 4.35604
-10.5825 39.0527 3.48811
41.0491 0.715108 1.6
8 2 -107.142 -81.4917 9.49816e-07 89.2552 -151.761 90.7448 -151.366
Tx-R-R-Rx 
12.0458 -18.3613 5.3
-97.1792 -77.9967 3.68231
-93.6965 -71.6519 3.58822
41.0491 0.715108 1.6
9 1 -107.954 87.0663 1.17543e-07 83.971 -157.515 96.029 38.8284
Tx-D-Rx 
12.0458 -18.3613 5.3
30.1353 -3.8022 2.84752
41.0491 0.715108 1.6
10 3 -109.788 -58.2514 5.57385e-07 88.7308 -140.704 91.2692 32.3317
Tx-R-R-R-Rx 
12.0458 -18.3613 5.3
69.1028 17.7529 3.80396
35.0078 -8.33936 2.85277
15.2262 -20.4178 2.33927
41.0491 0.715108 1.6
11 4 -110.36 125.18 4.46342e-07 88.415 -73.4406 91.585 112.641
Tx-F-X-R-R-Rx 
12.0458 -18.3613 5.3
1.88763 5.99249 4.56984
-0.455341 11.6097 4.40143
-11.5825 38.2866 3.60162
42.2633 -3.3683 1.71788
41.0491 0.715108 1.6
12 1 -112.116 70.3249 1.71718e-07 46.1367 -4.11419 86.351 27.6667
Tx-DS-Rx 
12.0458 -18.3613 5.3
47.5415 0.248108 7.85593
41.0491 0.715108 1.6
13 1 -112.342 -154.246 2.44679e-07 87.1078 -170.461 92.8922 152.217
Tx-D-Rx 
12.0458 -18.3613 5.3
-8.39231 -7.59316 4.13289
41.0491 0.715108 1.6
14 2 -112.581 -97.4489 1.30284e-07 84.5624 -103.185 95.4376 38.8284
Tx-D-R-Rx 
12.0458 -18.3613 5.3
30.1353 -3.8022 3.08963
39.6774 -5.14001 2.17244
41.0491 0.715108 1.6
15 1 -113.147 2.16574 2.4468e-07 87.1078 -170.483 92.8922 152.17
Tx-D-Rx 
12.0458 -18.3613 5.3
-8.38933 -7.57355 4.13256
41.0491 0.715108 1.6
16 2 -113.913 70.4673 4.81219e-07 88.5299 132.885 91.4701 39.2786
Tx-D-R-Rx 
12.0458 -18.3613 5.3
30.0008 -3.6765 4.70472
-1.21972 46.2261 3.19403
41.0491 0.715108 1.6
17 1 -114.088 -99.3465 1.21642e-07 75.2671 -129.955 89.2869 21.2966
Tx-DS-Rx 
12.0458 -18.3613 5.3
31.3822 -10.8236 5.55831
41.0491 0.715108 1.6
18 4 -114.493 81.0631 4.56387e-07 91.0052 -24.9352 91.6585 111.093
Tx-F-X-R-DS-Rx 
12.0458 -18.3613 5.3
2.27671 6.96518 4.51401
0.516446 11.5287 4.37238
-10.2103 39.3379 3.50934
45.323 -1.27195 1.5173
41.0491 0.715108 1.6
19 1 -114.55 -145.094 1.36399e-07 84.8069 -171.891 95.1931 72.4502
Tx-D-Rx 
12.0458 -18.3613 5.3
16.9949 -2.7121 3.80827
41.0491 0.715108 1.6
20 2 -114.919 167.842 1.5774e-07 85.511 -114.421 94.489 105.155
Tx-D-R-Rx 
12.0458 -18.3613 5.3
9.25132 -8.04432 4.46085
37.8093 -6.41996 2.2152
41.0491 0.715108 1.6
21 2 -115.063 -155.213 4.81221e-07 88.5299 132.897 91.4701 39.2128
Tx-D-R-Rx 
12.0458 -18.3613 5.3
29.9948 -3.71572 4.70548
-1.23031 46.218 3.19406
41.0491 0.715108 1.6
22 1 -115.361 -114.879 1.25289e-07 64.9696 -128.095 83.3596 22.2438
Tx-DS-Rx 
12.0458 -18.3613 5.3
32.724 -9.90422 7.90088
41.0491 0.715108 1.6
23 5 -115.441 23.7595 3.51816e-07 82.4275 81.5363 88.9139 58.3191
Tx-F-X-DS-F-X-Rx 
12.0458 -18.3613 5.3
40.5982 27.9035 6.33072
43.3436 32.352 6.42983
46.5235 37.5045 6.54462
45.918 33.4356 5.99775
45.4976 30.6101 5.61798
41.0491 0.715108 1.6
24 2 -115.504 1.88909 1.30288e-07 84.5626 -103.235 95.4374 38.8688
Tx-D-R-Rx 
12.0458 -18.3613 5.3
30.0984 -3.81088 3.09295
39.671 -5.14442 2.17297
41.0491 0.715108 1.6
25 4 -115.768 -36.4622 6.30643e-07 88.8783 32.4448 91.1217 32.0169
Tx-R-R-R-R-Rx 
12.0458 -18.3613 5.3
69.3152 17.4481 3.97747
43.6435 -2.42266 3.34182
33.4816 -8.55102 3.10947
68.7181 18.3048 2.24198
41.0491 0.715108 1.6
14 25
-83.0076 1.39984e-07 4.13208e-08
1 0 -80.879 -83.647 1.33749e-07 84.7037 -146.856 95.2963 33.1441
Tx-Rx 
12.0458 -18.3613 5.3
45.4647 3.4609 1.6
2 1 -81.7718 127.618 1.35771e-07 84.7828 -135.638 95.2172 24.3343
Tx-R-Rx 
12.0458 -18.3613 5.3
32.7035 -9.01911 3.22982
45.4647 3.4609 1.6
3 1 -91.0694 -83.9408 1.35771e-07 84.608 -135.729 95.0773 24.2616
Tx-D-Rx 
12.0458 -18.3613 5.3
32.568 -9.11172 3.3
45.4647 3.4609 1.6
4 1 -96.0562 -171.906 1.35775e-07 84.7829 -135.106 95.2171 24.7176
Tx-D-Rx 
12.0458 -18.3613 5.3
33.452 -8.50757 3.14832
45.4647 3.4609 1.6
5 1 -97.0534 125.82 1.35778e-07 85.3813 -135.335 95.6636 24.5611
Tx-D-Rx 
12.0458 -18.3613 5.3
33.1394 -8.72121 3
45.4647 3.4609 1.6
6 2 -99.3962 -4.0488 3.18742e-07 87.7802 29.9429 92.2198 29.019
Tx-R-R-Rx 
12.0458 -18.3613 5.3
55.8359 5.93099 3.35891
69.4389 17.2706 2.67244
45.4647 3.4609 1.6
7 1 -101.497 58.576 1.47665e-07 76.5269 -87.7048 93.9625 27.2572
Tx-DS-Rx 
12.0458 -18.3613 5.3
45.6455 -1.05097 2.68183
45.4647 3.4609 1.6
8 1 -101.507 137.466 1.5247e-07 85.3555 -167.766 94.6445 72.4502
Tx-D-Rx 
12.0458 -18.3613 5.3
16.9949 -2.7121 3.96661
45.4647 3.4609 1.6
9 2 -102.893 -175.074 4.27348e-07 88.3445 145.768 91.6555 109.406
Tx-R-D-Rx 
12.0458 -18.3613 5.3
-8.69007 40.5026 3.49627
20.6779 20.3263 2.46648
45.4647 3.4609 1.6
10 1 -102.912 -53.3171 1.5247e-07 85.3555 -167.795 94.6445 72.4007
Tx-D-Rx 
12.0458 -18.3613 5.3
17.0159 -2.69275 3.9646
45.4647 3.4609 1.6
11 2 -104.436 152.495 1.36762e-07 86.1611 -132.931 96.5785 22.9473
Tx-D-R-Rx 
12.0458 -18.3613 5.3
30.4115 -10.5855 3
33.5719 -9.3232 2.77164
45.4647 3.4609 1.6
12 4 -107.405 29.1268 4.51233e-07 88.4322 -75.5666 91.5678 110.515
Tx-F-X-R-R-Rx 
12.0458 -18.3613 5.3
2.35215 7.54437 4.54293
0.949432 11.293 4.43338
-9.69297 39.7343 3.60222
46.4789 -0.479935 1.71138
45.4647 3.4609 1.6
13 1 -107.973 -120.152 1.34649e-07 84.7392 -154.648 95.2608 38.8284
Tx-D-Rx 
12.0458 -18.3613 5.3
30.1353 -3.8022 3.16191
45.4647 3.4609 1.6
14 1 -109.995 152.894 1.50874e-07 85.3063 -177.749 94.6937 57.8937
Tx-D-Rx 
12.0458 -18.3613 5.3
25.2392 2.66573 3.26188
45.4647 3.4609 1.6
15 1 -110.029 -81.1123 1.70579e-07 39.0039 -26.3893 87.6866 28.0232
Tx-DS-Rx 
12.0458 -18.3613 5.3
49.3889 1.51381 7.00898
45.4647 3.4609 1.6
16 4 -111.067 162.432 4.56674e-07 93.446 -38.5512 91.7099 109.47
Tx-F-X-R-DS-Rx 
12.0458 -18.3613 5.3
2.43254 8.83063 4.43902
2.39631 8.93312 4.43577
-8.74868 40.4577 3.4376
48.5926 0.968247 1.35916
45.4647 3.4609 1.6
17 4 -112.169 6.74209 4.91872e-07 88.5617 90.2975 91.4383 94.063
Tx-F-X-R-R-Rx 
12.0458 -18.3613 5.3
8.05869 37.7694 3.88714
7.4423 46.447 3.66871
7.0101 52.5315 3.51556
45.2788 39.2446 2.49846
45.4647 3.4609 1.6
18 2 -112.296 -132.88 3.57669e-07 88.0219 -31.7547 91.9781 62.4111
Tx-D-R-Rx 
12.0458 -18.3613 5.3
41.9789 38.9226 3.06769
49.0195 1.26071 1.74439
45.4647 3.4609 1.6
19 1 -112.336 -66.8343 1.50875e-07 85.3063 -177.791 94.6937 57.8614
Tx-D-Rx 
12.0458 -18.3613 5.3
25.2659 2.68185 3.25962
45.4647 3.4609 1.6
20 1 -112.921 -70.7548 2.41025e-07 87.0639 -166.895 92.9361 150.017
Tx-D-Rx 
12.0458 -18.3613 5.3
-5.29616 -8.35582 4.27312
45.4647 3.4609 1.6
21 2 -113.314 -39.1714 4.27383e-07 88.3447 144.06 91.6553 108.979
Tx-R-D-Rx 
12.0458 -18.3613 5.3
-8.30141 40.8004 3.49198
25.24 18.1224 2.3219
45.4647 3.4609 1.6
22 2 -113.483 20.6794 3.57671e-07 88.0219 -31.8032 91.9781 62.4431
Tx-D-R-Rx 
12.0458 -18.3613 5.3
41.9413 38.9284 3.06813
49.0163 1.25853 1.74434
45.4647 3.4609 1.6
23 3 -113.602 139.869 9.67166e-07 89.2686 -150.565 90.7314 -151.517
Tx-R-R-D-Rx 
12.0458 -18.3613 5.3
-97.4205 -77.7549 3.71011
-94.5559 -72.5034 3.63374
4.99536 -19.3752 2.19321
45.4647 3.4609 1.6
24 1 -113.72 -26.298 2.60826e-07 87.287 -168.421 92.713 152.17
Tx-D-Rx 
12.0458 -18.3613 5.3
-8.38933 -7.57355 4.20499
45.4647 3.4609 1.6
25 1 -114.446 127.445 2.60827e-07 87.287 -168.401 92.713 152.217
Tx-D-Rx 
12.0458 -18.3613 5.3
-8.39231 -7.59316 4.20531
45.4647 3.4609 1.6
15 25
-83.5925 1.66061e-07 6.17617e-08
1 0 -81.9829 6.34386 1.51029e-07 85.3111 -147.018 94.6889 32.9818
Tx-Rx 
12.0458 -18.3613 5.3
49.8869 6.1959 1.6
2 1 -84.3956 -130.572 1.53496e-07 85.3866 -135.165 94.6134 23.9985
Tx-R-Rx 
12.0458 -18.3613 5.3
35.8444 -7.76618 3.19791
49.8869 6.1959 1.6
3 2 -95.6162 1.15943 1.53497e-07 85.6281 -135.168 94.8405 23.9952
Tx-D-R-Rx 
12.0458 -18.3613 5.3
33.6217 -8.75722 3.3
35.8389 -7.76997 3.11445
49.8869 6.1959 1.6
4 3 -96.7179 -8.076 4.34645e-07 88.3723 147.664 91.6277 107.252
Tx-F-X-R-Rx 
12.0458 -18.3613 5.3
3.28117 9.86178 4.46023
2.49492 12.3936 4.3849
-6.70628 42.0225 3.5033
49.8869 6.1959 1.6
5 2 -98.8619 -177.432 3.01414e-07 87.6525 29.8397 92.3475 28.9158
Tx-R-R-Rx 
12.0458 -18.3613 5.3
55.0595 5.39901 3.28555
69.3688 17.3712 2.52071
49.8869 6.1959 1.6
6 4 -101.609 -148.059 4.45823e-07 88.4131 152.082 91.5869 143.715
Tx-R-F-X-R-Rx 
12.0458 -18.3613 5.3
-0.307061 -9.29237 4.87547
-3.12408 3.07253 4.52415
-4.31514 8.30049 4.37561
-11.2115 38.5709 3.51554
49.8869 6.1959 1.6
7 2 -101.712 -94.4169 4.56692e-07 88.4509 -77.646 91.5491 108.436
Tx-R-R-Rx 
12.0458 -18.3613 5.3
-7.80316 41.1822 3.60265
50.7136 2.42145 1.70449
49.8869 6.1959 1.6
8 1 -103.77 -168.217 1.63356e-07 80.3343 -98.5897 93.9017 27.9803
Tx-DS-Rx 
12.0458 -18.3613 5.3
49.1555 1.35393 2.43402
49.8869 6.1959 1.6
9 2 -105.986 -163.351 1.53529e-07 86.4932 -134.677 95.7083 24.4825
Tx-D-R-Rx 
12.0458 -18.3613 5.3
32.9862 -8.82589 3
36.579 -7.26289 2.7599
49.8869 6.1959 1.6
10 1 -108.129 139.305 1.51852e-07 85.3366 -153.152 94.6634 38.8284
Tx-D-Rx 
12.0458 -18.3613 5.3
30.1353 -3.8022 3.40584
49.8869 6.1959 1.6
11 1 -108.623 5.81237 3.00041e-07 87.6418 35.4839 92.3582 33.8113
Tx-D-Rx 
12.0458 -18.3613 5.3
68.1056 19.1835 2.52141
49.8869 6.1959 1.6
12 4 -109.478 66.9515 4.34649e-07 88.3723 147.595 91.6277 106.491
Tx-D-F-X-R-Rx 
12.0458 -18.3613 5.3
8.98706 -8.02947 4.99382
3.48263 9.62077 4.46845
2.56672 12.5577 4.38103
-6.63845 42.0745 3.50245
49.8869 6.1959 1.6
13 1 -109.97 172.566 1.76226e-07 36.1603 -69.5621 88.2613 28.3341
Tx-DS-Rx 
12.0458 -18.3613 5.3
51.1755 2.73794 6.64944
49.8869 6.1959 1.6
14 2 -110.792 18.3013 4.59026e-07 90.8242 -63.4435 91.6121 108.055
Tx-R-DS-Rx 
12.0458 -18.3613 5.3
-7.45174 41.4514 3.52948
51.5031 2.96236 1.548
49.8869 6.1959 1.6
15 4 -110.839 5.61184 4.45824e-07 88.4131 152.113 91.5869 143.478
Tx-D-F-X-R-Rx 
12.0458 -18.3613 5.3
-0.407801 -9.13886 4.8707
-3.17199 3.02462 4.52514
-4.38669 8.36979 4.37329
-11.2443 38.5457 3.51602
49.8869 6.1959 1.6
16 1 -111.48 -40.728 1.68921e-07 85.8087 -164.869 94.1913 72.4007
Tx-D-Rx 
12.0458 -18.3613 5.3
17.0159 -2.69275 4.09539
49.8869 6.1959 1.6
17 4 -111.883 -7.05067 4.45824e-07 88.4131 152.041 91.5869 144.038
Tx-D-F-X-R-Rx 
12.0458 -18.3613 5.3
-0.173668 -9.49564 4.88177
-3.06091 3.1357 4.52283
-4.2855 8.49311 4.37058
-11.1682 38.604 3.51491
49.8869 6.1959 1.6
18 1 -113.015 155.822 2.38682e-07 87.035 165.299 92.965 87.128
Tx-D-Rx 
12.0458 -18.3613 5.3
13.7533 15.6757 3.53486
49.8869 6.1959 1.6
19 1 -113.68 -154.646 3.02274e-07 83.9748 27.6119 91.1182 31.1925
Tx-DS-Rx 
12.0458 -18.3613 5.3
69.8721 16.6492 3.98054
49.8869 6.1959 1.6
20 1 -113.976 157.632 3.05083e-07 72.413 31.5051 87.114 32.4916
Tx-DS-Rx 
12.0458 -18.3613 5.3
68.9949 17.9076 8.7038
49.8869 6.1959 1.6
21 1 -114.01 99.8009 1.68923e-07 85.8088 -164.846 94.1912 72.4502
Tx-D-Rx 
12.0458 -18.3613 5.3
16.9949 -2.7121 4.09722
49.8869 6.1959 1.6
22 1 -114.064 -45.5003 1.66367e-07 85.7442 -171.877 94.2558 57.8614
Tx-D-Rx 
12.0458 -18.3613 5.3
25.2659 2.68185 3.45072
49.8869 6.1959 1.6
23 2 -114.068 -4.96749 4.35303e-07 88.3748 153.149 91.6252 109.063
Tx-R-D-Rx 
12.0458 -18.3613 5.3
-8.37746 40.7421 3.52577
20.9822 20.8293 2.51922
49.8869 6.1959 1.6
24 3 -114.778 144.256 3.15449e-07 87.757 101.269 92.243 59.9515
Tx-F-X-D-Rx 
12.0458 -18.3613 5.3
39.224 28.621 3.17411
41.4499 32.4688 3
43.8316 36.586 2.8137
49.8869 6.1959 1.6
25 4 -114.818 92.7652 4.61001e-07 88.4654 155.821 91.5346 152.135
Tx-D-F-X-R-Rx 
12.0458 -18.3613 5.3
-8.39381 -7.5551 4.6806
-11.9269 14.5147 4.08182
-12.4624 17.8596 3.99107
-15.2791 35.4543 3.5137
49.8869 6.1959 1.6
16 25
-78.5251 1.77456e-07 3.75037e-08
1 0 -82.9778 155.381 1.68323e-07 85.7938 -147.143 94.2062 32.8569
Tx-Rx 
12.0458 -18.3613 5.3
54.3073 8.9338 1.6
2 1 -85.1662 85.5776 1.70392e-07 85.845 -136.487 94.155 25.3206
Tx-R-Rx 
12.0458 -18.3613 5.3
38.9808 -5.61732 3.1353
54.3073 8.9338 1.6
3 1 -96.7094 151.393 2.82752e-07 87.4975 36.0804 92.5025 33.6775
Tx-R-Rx 
12.0458 -18.3613 5.3
68.1957 19.0542 2.35105
54.3073 8.9338 1.6
4 2 -98.3013 -64.6716 2.84091e-07 87.5093 29.7215 92.4907 28.7976
Tx-R-R-Rx 
12.0458 -18.3613 5.3
54.2055 4.81393 3.2073
69.2885 17.4864 2.35038
54.3073 8.9338 1.6
5 1 -98.3966 22.2543 2.12919e-07 86.6759 117.426 93.3241 45.0532
Tx-R-Rx 
12.0458 -18.3613 5.3
49.1706 18.8326 2.24774
54.3073 8.9338 1.6
6 1 -105.433 14.3085 1.82467e-07 89.2123 -90.1994 94.3223 28.81
Tx-DS-Rx 
12.0458 -18.3613 5.3
54.2931 4.87397 1.65582
54.3073 8.9338 1.6
7 1 -105.782 -166.211 2.12919e-07 86.6759 117.536 93.3241 45.0767
Tx-D-Rx 
12.0458 -18.3613 5.3
49.1443 18.8366 2.24865
54.3073 8.9338 1.6
8 1 -105.979 -167.655 2.12919e-07 86.6759 117.299 93.3241 45.0264
Tx-D-Rx 
12.0458 -18.3613 5.3
49.2007 18.8279 2.24669
54.3073 8.9338 1.6
9 1 -107.756 94.5433 1.87685e-07 47.9217 -64.3969 90.7418 29.0102
Tx-DS-Rx 
12.0458 -18.3613 5.3
55.7684 5.88471 4.65272
54.3073 8.9338 1.6
10 1 -108.333 -148.612 1.69098e-07 85.8131 -152.216 94.1869 38.8284
Tx-D-Rx 
12.0458 -18.3613 5.3
30.1353 -3.8022 3.60012
54.3073 8.9338 1.6
11 1 -109.262 86.4519 2.54615e-07 87.2207 109.225 92.7793 51.1534
Tx-D-Rx 
12.0458 -18.3613 5.3
48.1796 26.5053 2.5034
54.3073 8.9338 1.6
12 1 -109.656 -121.513 2.82755e-07 87.4975 36.6056 92.5025 33.8113
Tx-D-Rx 
12.0458 -18.3613 5.3
68.1056 19.1835 2.35122
54.3073 8.9338 1.6
13 1 -110.793 173.833 2.54619e-07 87.2208 109.122 92.7792 51.1208
Tx-D-Rx 
12.0458 -18.3613 5.3
48.2171 26.4996 2.50252
54.3073 8.9338 1.6
14 1 -111.558 -42.4807 2.8512e-07 82.8803 26.5024 91.2974 31.2275
Tx-DS-Rx 
12.0458 -18.3613 5.3
69.8484 16.6832 3.76911
54.3073 8.9338 1.6
15 1 -112.345 72.582 2.88391e-07 68.6863 31.657 87.444 32.5511
Tx-DS-Rx 
12.0458 -18.3613 5.3
68.9548 17.9651 8.31388
54.3073 8.9338 1.6
16 2 -112.89 103.461 2.67467e-07 87.3544 -95.7135 92.6456 87.128
Tx-D-R-Rx 
12.0458 -18.3613 5.3
13.7533 15.6757 3.72525
53.8722 4.58558 1.80192
54.3073 8.9338 1.6
17 3 -113.849 -102.744 4.62881e-07 88.4716 -81.1106 91.5284 107.73
Tx-R-D-R-Rx 
12.0458 -18.3613 5.3
-7.15092 41.6819 3.61809
0.602386 36.6826 3.37194
54.8794 5.27566 1.69879
54.3073 8.9338 1.6
18 1 -115.493 149.454 2.17592e-07 88.66 -178.527 96.0138 81.7817
Tx-D-Rx 
12.0458 -18.3613 5.3
15.8451 7.94454 2.5
54.3073 8.9338 1.6
19 3 -115.494 11.6614 3.50984e-07 87.9842 -37.6099 92.0158 62.3856
Tx-D-R-R-Rx 
12.0458 -18.3613 5.3
42.016 38.9313 3.02424
49.0791 33.9316 2.71966
57.0899 6.79015 1.72363
54.3073 8.9338 1.6
20 4 -115.629 -66.216 4.66981e-07 90.1921 -108.301 91.5917 107.54
Tx-F-X-R-DS-Rx 
12.0458 -18.3613 5.3
2.79776 10.8977 4.44732
2.69116 11.2349 4.43749
-6.97497 41.8167 3.54626
52.5752 3.69693 1.58151
54.3073 8.9338 1.6
21 9 -116.424 76.2993 4.51626e-07 87.947 144.653 91.1349 100.226
Tx-F-X-F-X-F-X-DS-F-X-Rx 
12.0458 -18.3613 5.3
7.12995 8.88821 4.75147
5.93177 15.53 4.61777
5.34635 18.7751 4.55245
3.75977 27.5699 4.37541
2.8386 32.6761 4.27262
1.3809 40.7565 4.10996
0.198189 47.3125 3.97799
4.53009 44.2399 3.78761
12.0791 38.8856 3.45585
54.3073 8.9338 1.6
22 3 -116.512 171.492 3.50985e-07 87.9842 -37.5695 92.0158 62.4111
Tx-D-R-R-Rx 
12.0458 -18.3613 5.3
41.9789 38.9226 3.02513
49.1189 33.876 2.71739
57.092 6.79162 1.72366
54.3073 8.9338 1.6
23 1 -116.525 -108.614 2.59854e-07 87.2768 -164.558 92.7232 141.808
Tx-D-Rx 
12.0458 -18.3613 5.3
-2.65011 -6.79996 4.41061
54.3073 8.9338 1.6
24 2 -116.657 -110.383 2.67468e-07 87.3544 -95.8294 92.6456 87.2851
Tx-D-R-Rx 
12.0458 -18.3613 5.3
13.6565 15.6058 3.7287
53.8627 4.57903 1.80227
54.3073 8.9338 1.6
25 1 -116.808 103.581 1.85598e-07 86.1859 -162.684 93.8141 72.4007
Tx-D-Rx 
12.0458 -18.3613 5.3
17.0159 -2.69275 4.20413
54.3073 8.9338 1.6
17 25
-80.8723 1.96305e-07 4.58292e-08
1 0 -83.8842 41.4431 1.85629e-07 86.1865 -147.223 93.8135 32.7767
Tx-Rx 
12.0458 -18.3613 5.3
58.717 11.6894 1.6
2 1 -85.8951 75.2923 1.87385e-07 86.2223 -137.548 93.7777 26.3818
Tx-R-Rx 
12.0458 -18.3613 5.3
42.2376 -3.38589 3.07472
58.717 11.6894 1.6
3 1 -96.0992 -160.592 2.65465e-07 87.3344 36.3471 92.6656 33.4108
Tx-R-Rx 
12.0458 -18.3613 5.3
68.3754 18.7964 2.15828
58.717 11.6894 1.6
4 2 -97.7131 -57.6259 2.66772e-07 87.3475 29.5731 92.6525 28.6492
Tx-R-R-Rx 
12.0458 -18.3613 5.3
53.1828 4.1132 3.12832
69.1877 17.6311 2.15775
58.717 11.6894 1.6
5 1 -105.422 -169.586 1.96544e-07 67.1908 -75.5655 92.4172 29.4633
Tx-DS-Rx 
12.0458 -18.3613 5.3
59.5451 8.47232 2.99705
58.717 11.6894 1.6
6 2 -107.159 -138.903 2.97846e-07 87.6244 -123.629 92.3756 150.111
Tx-R-R-Rx 
12.0458 -18.3613 5.3
-5.30147 -8.39049 4.46992
54.0924 4.73642 1.94643
58.717 11.6894 1.6
7 5 -107.321 174.705 4.7169e-07 92.392 130.919 92.392 89.3169
Tx-F-X-R-D-R-Rx 
12.0458 -18.3613 5.3
12.4168 12.7572 4
12.4168 12.7572 4
12.9453 57.0788 2.14843
21.2139 54.9557 1.79182
41.4693 31.5876 0.5
58.717 11.6894 1.6
8 3 -107.714 -6.83844 4.7169e-07 92.392 130.913 92.392 89.3207
Tx-R-D-R-Rx 
12.0458 -18.3613 5.3
12.9402 57.0749 2.14859
21.23 54.9458 1.79106
41.4713 31.5893 0.5
58.717 11.6894 1.6
9 4 -107.996 53.582 4.51076e-07 92.1752 151.632 92.5904 103.274
Tx-F-X-R-D-Rx 
12.0458 -18.3613 5.3
5.67454 8.64582 4.0446
5.44821 9.60521 4
-2.88926 44.947 2.35717
33.2341 25.4494 0.5
58.717 11.6894 1.6
10 1 -108.508 159.803 1.86367e-07 86.2017 -151.542 93.7983 38.8284
Tx-D-Rx 
12.0458 -18.3613 5.3
30.1353 -3.8022 3.75837
58.717 11.6894 1.6
11 1 -108.836 -174.707 2.67965e-07 81.6191 24.5058 91.614 31.2905
Tx-DS-Rx 
12.0458 -18.3613 5.3
69.8059 16.7443 3.39541
58.717 11.6894 1.6
12 1 -109.73 -15.3237 1.89669e-07 89.0096 -124.181 94.254 28.7556
Tx-DS-Rx 
12.0458 -18.3613 5.3
53.9104 4.61176 1.74791
58.717 11.6894 1.6
13 4 -109.829 -47.3409 4.51081e-07 91.9568 151.679 92.6718 103.288
Tx-F-X-R-D-Rx 
12.0458 -18.3613 5.3
5.66769 8.64484 4.00509
5.64261 8.75104 4
-2.90331 44.9362 2.26497
30.3757 26.9632 0.5
58.717 11.6894 1.6
14 1 -110.572 141.451 2.7156e-07 63.7288 32.1763 88.1134 32.67
Tx-DS-Rx 
12.0458 -18.3613 5.3
68.8747 18.0802 7.52368
58.717 11.6894 1.6
15 4 -111.309 -152.662 4.51078e-07 92.0919 151.63 92.6189 103.273
Tx-F-X-R-D-Rx 
12.0458 -18.3613 5.3
5.67485 8.64586 4.03079
5.52029 9.30104 4
-2.88863 44.9475 2.32478
32.2189 25.9987 0.5
58.717 11.6894 1.6
16 2 -113.565 177.112 2.65953e-07 87.3393 38.5749 92.6607 38.8284
Tx-D-R-Rx 
12.0458 -18.3613 5.3
30.1353 -3.8022 4.22091
68.1083 19.1796 2.15823
58.717 11.6894 1.6
17 2 -113.727 -83.053 2.09244e-07 86.6175 -122.72 93.3825 72.4502
Tx-D-R-Rx 
12.0458 -18.3613 5.3
16.9949 -2.7121 4.3299
54.3737 4.92917 2.07492
58.717 11.6894 1.6
18 1 -113.877 -133.333 1.9943e-07 86.4508 -171.938 93.5492 51.434
Tx-D-Rx 
12.0458 -18.3613 5.3
33.1142 8.06287 3.20386
58.717 11.6894 1.6
19 2 -114.19 35.0781 2.97846e-07 87.6244 -123.646 92.3756 150.17
Tx-D-R-Rx 
12.0458 -18.3613 5.3
-5.30483 -8.41242 4.47025
54.0869 4.73264 1.94669
58.717 11.6894 1.6
20 2 -114.367 86.0214 4.51083e-07 91.8803 151.626 92.7062 103.271
Tx-R-D-Rx 
12.0458 -18.3613 5.3
-2.88675 44.9489 2.22539
29.2364 27.6123 0.5
58.717 11.6894 1.6
21 2 -114.662 -49.0496 2.66983e-07 92.221 29.5902 93.5156 28.6462
Tx-R-DS-Rx 
12.0458 -18.3613 5.3
53.1624 4.09926 2.42168
69.1856 17.6341 1.1331
58.717 11.6894 1.6
22 2 -114.715 30.6327 2.97846e-07 87.6244 -123.602 92.3756 150.017
Tx-D-R-Rx 
12.0458 -18.3613 5.3
-5.29616 -8.35582 4.46939
54.1011 4.74238 1.94603
58.717 11.6894 1.6
23 2 -114.934 121.57 2.74643e-07 57.7669 31.3958 86.7339 28.3267
Tx-R-DS-Rx 
12.0458 -18.3613 5.3
51.1311 2.70752 7.83383
68.9683 17.9458 9.17258
58.717 11.6894 1.6
24 1 -115.095 170.486 2.76524e-07 87.4411 -163.233 92.5589 141.808
Tx-D-Rx 
12.0458 -18.3613 5.3
-2.65011 -6.79996 4.46434
58.717 11.6894 1.6
25 2 -115.241 46.5012 2.07352e-07 86.5865 -117.12 93.4135 57.8614
Tx-D-R-Rx 
12.0458 -18.3613 5.3
25.2659 2.68185 3.81771
55.7309 5.85904 1.99072
58.717 11.6894 1.6
